t_monotonic,ax,ay,az,gx,gy,gz
506944.062000,-0.861,-0.057,-0.453,-18.83,-24.23,-60.09
506944.109000,-0.944,0.036,-0.495,-20.81,-11.38,-41.08
506944.156000,-0.947,0.016,-0.482,-34.73,-8.27,-5.83
506944.203000,-0.868,-0.102,-0.473,-36.62,-4.46,24.14
506944.250000,-0.823,-0.17,-0.455,-36.93,1.16,28.47
506944.296000,-0.881,-0.168,-0.42,-18.28,12.3,28.08
506944.343000,-0.964,-0.148,-0.412,-0.85,15.56,27.16
506944.390000,-1.005,-0.148,-0.395,5.71,12.76,21.42
506944.437000,-0.972,-0.143,-0.356,11.9,7.14,13.12
506944.484000,-0.95,-0.12,-0.373,11.75,-3.57,2.56
506944.531000,-0.918,-0.129,-0.39,11.23,-6.62,-1.62
506944.578000,-0.93,-0.086,-0.411,11.96,-1.98,-6.62
506944.625000,-0.808,-0.131,-0.361,1.8,-6.32,-7.17
506944.671000,-0.818,-0.084,-0.404,-0.76,-1.13,-5.19
506944.718000,-0.91,-0.11,-0.406,-10.01,7.69,3.45
506944.765000,-0.952,-0.14,-0.408,-5.04,6.68,2.26
506944.812000,-0.95,-0.166,-0.429,-0.85,-2.01,-7.87
506944.859000,-0.915,-0.166,-0.447,2.32,-6.93,-24.78
506944.906000,-0.865,-0.112,-0.469,0.52,-10.07,-38.97
506944.953000,-0.82,-0.076,-0.48,-7.57,-7.9,-40.44
506945.000000,-0.816,-0.045,-0.466,-10.5,-0.43,-32.2
506945.046000,-0.859,-0.023,-0.49,-9.95,0.98,-13.61
506945.093000,-0.813,-0.092,-0.514,-21.94,-6.13,8.18
506945.140000,-0.801,-0.101,-0.531,-23.07,-7.17,12.39
506945.187000,-0.796,-0.125,-0.512,-22.49,-5.65,21.73
506945.234000,-0.816,-0.187,-0.476,8.85,-7.45,36.47
506945.281000,-0.86,-0.183,-0.489,30.27,-7.75,34.58
506945.328000,-1.024,-0.095,-0.568,14.56,-0.58,28.05
506945.375000,-0.819,-0.252,-0.474,-36.19,-6.44,17.94
506945.421000,-0.816,-0.207,-0.394,-16.75,12.88,-13.06
506945.468000,-1.008,-0.097,-0.356,-5.16,14.4,-17.15
506945.515000,-1.0,-0.073,-0.336,10.9,-1.28,-21.82
506945.562000,-0.898,-0.066,-0.357,-0.73,-19.44,-28.14
506945.609000,-0.85,-0.066,-0.391,-9.0,-17.0,-30.52
506945.656000,-0.913,-0.017,-0.387,-10.22,-1.37,-25.61
506945.703000,-0.969,-0.007,-0.37,-4.09,1.04,-6.71
506945.750000,-0.969,-0.061,-0.366,6.1,-0.79,2.93
506945.796000,-0.989,-0.058,-0.366,15.99,-3.02,-0.7
506945.843000,-0.911,-0.047,-0.355,13.25,-13.06,-4.55
506945.906000,-0.852,-0.008,-0.382,-0.89,-11.66,1.8
506945.953000,-0.86,-0.031,-0.383,-10.56,-4.97,18.71
506946.000000,-0.899,-0.061,-0.387,-11.75,0.27,32.59
506946.046000,-0.941,-0.083,-0.403,-15.66,1.37,38.58
506946.093000,-0.99,-0.119,-0.414,-14.53,2.78,37.69
506946.140000,-0.97,-0.146,-0.405,-14.04,-0.55,26.03
506946.187000,-0.93,-0.17,-0.408,-10.25,-5.19,13.21
506946.234000,-0.905,-0.161,-0.423,-3.33,-6.96,-3.3
506946.281000,-0.906,-0.125,-0.434,2.44,-4.88,-15.02
506946.328000,-0.886,-0.102,-0.416,5.71,-2.38,-17.91
506946.375000,-0.868,-0.084,-0.355,1.13,-0.92,-17.88
506946.421000,-0.856,-0.091,-0.322,-1.98,-2.81,-14.62
506946.468000,-0.897,-0.067,-0.305,0.89,-3.69,-8.3
506946.515000,-0.889,-0.085,-0.273,-0.18,-5.28,0.4
506946.562000,-0.934,-0.086,-0.269,0.61,-4.73,0.58
506946.609000,-0.975,-0.085,-0.279,1.25,-3.51,2.47
506946.656000,-0.968,-0.117,-0.264,-3.36,-0.58,-3.85
506946.703000,-1.014,-0.11,-0.198,8.12,5.71,-17.49
506946.750000,-1.036,-0.044,-0.12,26.18,-8.45,-31.95
506946.796000,-1.067,0.037,-0.165,33.2,-32.59,-34.73
506946.843000,-1.1,0.077,-0.249,12.97,-53.59,-20.23
506946.890000,-1.13,0.051,-0.367,-14.62,-58.02,-14.1
506946.937000,-0.898,-0.129,-0.905,-235.05,-88.9,-66.53
506946.984000,-0.77,-0.23,-0.694,-321.12,-71.6,-102.3
506947.031000,-0.823,-0.078,-0.403,30.49,44.74,-11.57
506947.078000,-0.992,0.121,-0.37,146.09,61.56,32.56
506947.125000,-0.894,0.085,-0.331,56.34,34.76,82.46
506947.171000,-0.781,-0.102,-0.33,-33.97,22.03,85.12
506947.218000,-0.894,-0.19,-0.333,-59.82,52.77,77.18
506947.265000,-1.086,-0.188,-0.229,-13.76,78.55,69.0
506947.312000,-1.19,-0.155,-0.145,50.63,58.08,60.58
506947.359000,-1.068,-0.126,-0.111,72.57,5.52,33.75
506947.406000,-0.958,-0.095,-0.213,40.38,-31.37,8.45
506947.453000,-0.865,-0.11,-0.263,-14.68,-34.85,-19.23
506947.500000,-0.908,-0.077,-0.283,-32.99,-23.71,-36.29
506947.562000,-0.985,-0.054,-0.278,-23.01,-27.89,-34.85
506947.609000,-0.992,-0.025,-0.387,7.42,-38.61,-24.48
506947.671000,-0.907,0.002,-0.513,-29.33,-29.91,-41.44
506947.718000,-0.915,0.019,-0.491,-93.17,-6.2,-46.57
506947.765000,-0.919,-0.025,-0.392,-40.22,12.02,-13.98
506947.812000,-0.912,-0.012,-0.345,1.28,18.83,-2.17
506947.859000,-0.918,-0.009,-0.281,0.31,20.42,6.2
506947.906000,-0.934,-0.024,-0.278,-3.39,14.01,15.2
506947.953000,-0.948,-0.064,-0.286,-6.47,8.94,18.52
506948.000000,-0.981,-0.074,-0.27,3.2,7.48,16.08
506948.046000,-0.981,-0.071,-0.268,6.1,-1.74,9.92
506948.093000,-0.939,-0.065,-0.294,10.19,-13.61,5.01
506948.140000,-0.916,-0.058,-0.316,13.46,-12.76,5.25
506948.187000,-0.939,-0.048,-0.309,18.83,-11.66,9.46
506948.234000,-0.95,-0.054,-0.336,19.68,-14.86,12.09
506948.281000,-0.947,-0.053,-0.405,-0.34,-9.28,3.97
506948.328000,-0.967,-0.041,-0.399,-19.07,5.62,-2.75
506948.375000,-0.959,-0.046,-0.372,-22.98,14.68,-2.17
506948.421000,-0.941,-0.074,-0.311,-14.44,14.34,-0.34
506948.468000,-0.931,-0.056,-0.299,1.5,9.8,-2.47
506948.515000,-0.959,-0.025,-0.294,-0.92,12.02,-4.33
506948.562000,-0.952,-0.021,-0.271,-9.58,6.44,-1.37
506948.609000,-0.927,-0.057,-0.281,-11.11,0.0,-1.59
506948.656000,-0.934,-0.079,-0.307,-8.58,-1.1,-7.66
506948.703000,-0.95,-0.056,-0.293,-2.9,-3.17,-13.98
506948.750000,-0.96,-0.017,-0.307,2.29,-8.76,-15.84
506948.796000,-0.945,0.004,-0.339,2.14,-10.9,-12.54
506948.843000,-0.922,-0.005,-0.355,1.59,-9.28,-5.43
506948.890000,-0.908,-0.011,-0.365,3.78,-7.32,-1.16
506948.937000,-0.917,-0.022,-0.369,0.55,-1.68,4.52
506948.984000,-0.929,-0.04,-0.35,1.4,1.74,7.26
506949.031000,-0.944,-0.046,-0.328,-2.23,4.76,6.59
506949.078000,-0.951,-0.05,-0.313,-5.01,4.76,5.16
506949.140000,-0.941,-0.069,-0.315,-3.42,2.04,3.91
506949.187000,-0.942,-0.068,-0.312,0.85,2.04,2.26
506949.234000,-0.955,-0.056,-0.315,2.62,0.67,-0.61
506949.281000,-0.946,-0.05,-0.317,3.51,0.03,-1.04
506949.328000,-0.947,-0.043,-0.319,3.66,0.46,-1.01
506949.375000,-0.942,-0.041,-0.316,0.24,0.34,-0.92
506949.421000,-0.933,-0.042,-0.32,-2.01,0.43,0.21
506949.468000,-0.934,-0.049,-0.324,-4.64,1.19,1.4
506949.515000,-0.942,-0.05,-0.319,-3.85,2.2,2.2
506949.562000,-0.944,-0.057,-0.318,-2.14,1.74,2.44
506949.609000,-0.944,-0.056,-0.313,-0.52,1.53,1.68
506949.656000,-0.94,-0.051,-0.316,1.95,-0.06,1.34
506949.703000,-0.942,-0.045,-0.326,0.85,0.21,0.82
506949.750000,-0.939,-0.044,-0.329,1.83,0.18,1.31
506949.796000,-0.936,-0.047,-0.33,0.76,0.18,1.19
506949.843000,-0.938,-0.047,-0.329,0.21,0.85,0.73
506949.890000,-0.942,-0.047,-0.318,0.03,0.76,0.43
506949.937000,-0.94,-0.05,-0.317,-0.27,0.09,-0.15
506949.984000,-0.938,-0.048,-0.322,0.43,-0.18,-0.67
506950.031000,-0.939,-0.042,-0.321,0.67,-0.27,-1.07
506950.078000,-0.939,-0.037,-0.323,0.12,-0.67,-0.79
506950.125000,-0.939,-0.04,-0.335,0.52,-0.76,-0.61
506950.187000,-0.94,-0.035,-0.329,-1.1,-0.06,-0.03
506950.234000,-0.937,-0.042,-0.325,-0.58,0.06,0.61
506950.281000,-0.941,-0.044,-0.315,-0.85,0.37,0.24
506950.328000,-0.944,-0.04,-0.313,-0.06,-0.79,0.15
506950.375000,-0.941,-0.042,-0.321,0.4,-1.31,0.27
506950.421000,-0.948,-0.04,-0.321,1.01,-0.73,0.82
506950.468000,-0.94,-0.049,-0.332,1.62,-0.27,1.77
506950.515000,-0.939,-0.056,-0.331,0.92,1.22,0.18
506950.562000,-0.937,-0.046,-0.313,1.07,1.65,-2.41
506950.609000,-0.951,-0.012,-0.309,2.01,0.15,-0.89
506950.656000,-0.943,-0.019,-0.327,-0.03,-0.61,1.92
506950.703000,-0.936,-0.029,-0.331,-1.01,1.53,4.52
506950.750000,-0.934,-0.051,-0.332,-1.31,0.73,5.13
506950.796000,-0.935,-0.065,-0.328,-0.46,1.92,3.23
506950.843000,-0.945,-0.063,-0.307,3.75,1.43,-0.18
506950.890000,-0.951,-0.042,-0.296,4.88,-0.06,-2.78
506950.937000,-0.943,-0.029,-0.313,3.45,-2.56,-3.11
506950.984000,-0.934,-0.02,-0.328,1.43,-1.77,-0.31
506951.031000,-0.933,-0.034,-0.333,0.82,-1.22,2.5
506951.078000,-0.942,-0.049,-0.328,0.98,0.12,2.72
506951.125000,-0.952,-0.053,-0.31,0.52,0.73,1.13
506951.171000,-0.946,-0.057,-0.311,0.24,-0.34,0.15
506951.218000,-0.942,-0.056,-0.319,0.73,0.15,-1.1
506951.265000,-0.941,-0.044,-0.317,-0.52,-0.06,-2.84
506951.312000,-0.942,-0.027,-0.329,0.27,0.34,-2.44
506951.359000,-0.941,-0.028,-0.319,0.98,1.01,0.34
506951.406000,-0.944,-0.034,-0.318,1.53,0.43,1.68
506951.453000,-0.945,-0.042,-0.316,1.95,0.34,2.01
506951.500000,-0.943,-0.048,-0.317,0.15,-0.06,1.34
506951.546000,-0.942,-0.046,-0.324,0.43,0.64,0.03
506951.593000,-0.947,-0.032,-0.326,1.01,1.4,-0.12
506951.640000,-0.954,-0.005,-0.244,11.11,-6.13,8.91
506951.687000,-0.924,-0.001,-0.382,-16.54,-14.01,5.95
506951.734000,-0.935,-0.075,-0.305,-56.67,16.85,-8.7
506951.781000,-0.962,-0.071,-0.272,-34.79,4.61,-7.75
506951.828000,-0.931,-0.067,-0.33,-5.68,-2.84,-8.55
506951.875000,-0.901,-0.015,-0.317,30.09,0.46,-4.76
506951.921000,-0.949,0.013,-0.33,33.14,3.94,-1.56
506951.968000,-0.986,0.023,-0.335,27.38,2.23,0.79
506952.015000,-0.933,0.002,-0.367,25.06,-3.48,7.23
506952.062000,-0.895,-0.045,-0.382,14.16,-1.25,12.15
506952.109000,-0.912,-0.061,-0.371,6.65,3.23,13.34
506952.156000,-0.939,-0.068,-0.35,-14.16,14.5,3.63
506952.203000,-0.966,-0.093,-0.277,-8.48,15.05,2.96
506952.250000,-0.962,-0.062,-0.284,7.54,3.27,0.4
506952.296000,-0.94,-0.047,-0.282,0.85,-0.18,-5.13
506952.343000,-0.929,-0.037,-0.303,-0.7,-4.12,-7.2
506952.390000,-0.936,-0.022,-0.339,-1.34,-4.55,-4.55
506952.437000,-0.932,-0.032,-0.358,2.96,-2.78,-0.18
506952.484000,-0.931,-0.038,-0.367,1.25,-2.01,-0.89
506952.531000,-0.932,-0.035,-0.371,0.24,-0.98,-0.98
506952.578000,-0.932,-0.039,-0.345,0.85,3.14,0.82
506952.625000,-0.938,-0.051,-0.321,2.14,2.5,1.98
506952.671000,-0.944,-0.054,-0.32,2.29,0.7,-0.09
506952.718000,-0.933,-0.044,-0.336,1.37,-0.64,-1.5
506952.765000,-0.928,-0.037,-0.346,1.98,0.27,-0.21
506952.812000,-0.931,-0.038,-0.341,2.01,0.55,1.46
506952.859000,-0.934,-0.053,-0.33,1.31,0.06,2.01
506952.906000,-0.935,-0.059,-0.328,0.79,-0.49,0.52
506952.953000,-0.939,-0.051,-0.335,0.34,-0.95,-0.52
506953.000000,-0.938,-0.038,-0.343,-0.37,-0.27,-0.73
506953.046000,-0.934,-0.041,-0.35,-1.86,-0.34,0.18
506953.093000,-0.94,-0.036,-0.348,-2.9,2.04,0.43
506953.140000,-0.93,-0.046,-0.336,-5.77,1.53,2.78
506953.187000,-0.936,-0.053,-0.34,-5.13,1.89,3.85
506953.234000,-0.927,-0.07,-0.329,-5.86,1.68,1.53
506953.281000,-0.892,-0.098,-0.339,0.61,-1.68,-1.89
506953.328000,-0.888,-0.178,-0.468,25.42,-17.61,10.65
506953.375000,-0.9,-1.175,-1.433,120.94,-125.52,43.06
506953.421000,-1.34,-0.948,-1.419,269.14,62.2,-94.33
506953.468000,-1.482,-0.564,-0.88,255.96,93.69,-138.1
506953.515000,-1.309,-0.383,-0.647,226.17,73.37,-142.61
506953.562000,-1.207,-0.29,-0.358,181.4,110.84,-126.35
506953.609000,-1.161,-0.297,-0.026,154.18,111.85,-138.46
506953.656000,-1.048,-0.081,0.122,183.72,58.87,-135.01
506953.703000,-0.835,0.068,0.167,117.62,-10.01,-114.14
506953.765000,-0.69,0.125,0.033,61.62,-73.61,-68.18
506953.812000,-0.546,0.199,-0.106,9.98,-87.68,-34.36
506953.859000,-0.565,0.231,-0.233,-39.92,-69.34,28.11
506953.906000,-0.651,0.12,-0.241,-47.0,-32.53,91.19
506953.953000,-0.825,-0.085,-0.463,-80.48,-21.12,157.99
506954.000000,-0.932,-0.253,-0.561,-42.94,10.07,204.05
506954.046000,-1.142,-0.162,-0.741,17.21,86.31,205.05
506954.093000,-1.747,0.105,-0.472,178.38,180.58,307.72
506954.140000,-2.182,0.021,-0.433,174.63,199.44,373.42
506954.187000,-2.202,-0.348,-0.034,184.24,271.03,390.06
506954.234000,-3.859,-3.256,3.909,355.94,222.57,340.28
506954.281000,-1.447,0.667,-0.107,413.25,-127.02,108.04
506954.328000,-1.45,-0.341,0.056,-565.78,-12.45,-153.81
506954.375000,-1.604,-0.381,0.511,15.29,-53.74,-121.83
506954.421000,-1.532,0.009,-0.271,21.64,-182.23,-59.72
506954.468000,-1.514,-0.325,-0.28,-110.11,-174.75,-108.4
506954.515000,-1.501,-0.305,-0.346,-92.26,-146.31,-169.32
506954.562000,-1.422,-0.168,-0.235,-85.82,-117.47,-203.83
506954.609000,-1.198,-0.137,-0.27,-80.26,-136.39,-205.73
506954.656000,-0.963,-0.128,-0.343,-145.24,-123.91,-231.79
506954.703000,-0.828,-0.107,-0.231,-219.15,-65.13,-266.37
506954.750000,-0.801,-0.046,-0.074,-202.22,-33.11,-254.77
506954.796000,-0.602,0.134,-0.007,-100.28,-50.23,-184.27
506954.843000,-0.432,0.218,-0.121,-68.42,-86.46,-77.33
506954.890000,-0.387,0.135,-0.212,-85.6,-82.25,32.96
506954.937000,-0.513,0.096,-0.303,-128.51,-84.29,71.29
506954.984000,-0.905,0.054,-0.511,-166.3,-104.56,146.43
506955.031000,-1.366,-0.208,-0.665,-154.45,-132.18,192.66
506955.078000,-1.366,-0.392,-1.071,-153.11,-163.0,229.01
506955.125000,-1.403,-0.623,-1.071,-97.87,-104.22,214.27
506955.171000,-1.555,-0.605,-0.91,-1.83,-102.6,264.69
506955.218000,-1.487,-0.738,-0.749,161.17,-65.28,220.04
506955.265000,-1.266,-0.638,-0.643,280.59,-24.99,169.32
506955.312000,-0.997,-0.512,-0.452,172.09,-1.22,93.6
506955.359000,-0.939,-0.49,-0.396,60.58,36.93,37.6
506955.406000,-0.998,-0.437,-0.21,-17.67,55.7,-46.82
506955.453000,-1.085,-0.262,-0.15,22.61,33.78,-82.52
506955.500000,-1.049,-0.144,-0.183,35.07,1.5,-104.37
506955.546000,-1.129,-0.08,-0.248,29.24,-0.82,-120.67
506955.593000,-1.248,-0.018,-0.253,-31.34,-7.51,-132.54
506955.640000,-1.296,-0.016,-0.314,-28.69,-27.86,-127.9
506955.687000,-1.09,-0.076,-0.358,-3.91,-63.6,-106.66
506955.734000,-0.907,-0.219,-0.493,30.34,-116.49,-70.68
506955.781000,-0.908,-0.309,-0.633,17.49,-110.54,-75.01
506955.828000,-0.951,-0.216,-0.691,-23.01,-74.43,-100.92
506955.875000,-0.986,-0.202,-0.569,-80.87,-44.8,-144.84
506955.921000,-0.81,-0.197,-0.535,-31.07,-45.29,-79.93
506955.984000,-0.656,-0.224,-0.442,-46.78,-19.71,-56.86
506956.031000,-0.603,-0.192,-0.322,-75.66,-9.09,-41.17
506956.078000,-0.638,-0.121,-0.282,-59.97,2.17,-11.9
506956.125000,-0.794,-0.151,-0.354,-40.5,15.11,32.78
506956.171000,-0.84,-0.435,-0.295,-30.7,21.55,92.56
506956.218000,-0.91,-0.591,-0.281,-0.12,21.45,79.44
506956.265000,-0.875,-0.819,-0.377,-4.58,12.76,59.6
506956.312000,-0.875,-1.125,-0.482,-19.71,19.32,3.48
506956.359000,-0.995,-1.481,-0.845,55.39,61.34,-104.07
506956.406000,-1.14,-1.383,-0.923,54.87,129.89,-209.17
506956.453000,-1.139,-1.365,-1.035,0.4,195.59,-252.17
506956.500000,-0.868,-1.316,-0.892,-83.59,321.39,-306.44
506956.546000,-0.564,-1.114,-0.453,-44.71,298.99,-268.35
506956.593000,-0.417,-0.708,-0.429,79.01,243.08,-235.18
506956.640000,-0.299,-0.492,-0.582,-17.76,174.26,-258.74
506956.687000,0.046,-0.012,0.162,91.92,206.95,-239.57
506956.734000,0.423,1.129,0.11,290.81,135.65,-139.35
506956.781000,0.429,1.419,0.008,74.13,138.46,-132.3
506956.828000,0.683,-0.509,0.268,-88.08,89.27,90.15
506956.875000,1.014,-1.182,0.14,24.29,67.81,57.59
506956.921000,0.963,-0.235,0.188,31.37,43.18,-97.66
506956.968000,0.766,0.03,0.425,58.81,47.15,-44.04
506957.015000,0.902,-0.457,0.363,123.81,9.22,82.09
506957.062000,0.867,-0.863,0.497,96.99,-48.01,41.05
506957.109000,0.813,-0.352,0.226,157.99,-78.74,5.77
506957.156000,1.264,0.338,-0.418,79.47,-106.17,-96.35
506957.203000,1.094,0.661,-0.296,-32.84,10.1,-104.31
506957.250000,1.001,-0.043,0.038,13.55,33.72,78.07
506957.296000,0.829,-0.403,0.219,-2.44,41.96,31.62
506957.343000,0.765,-0.282,0.397,-7.32,7.66,-27.68
506957.390000,0.838,-0.11,0.283,0.12,-34.76,-25.39
506957.437000,0.912,-0.09,0.227,6.84,-38.15,5.77
506957.484000,0.975,-0.197,0.208,-0.27,-31.68,32.99
506957.531000,1.045,-0.288,0.165,-4.97,-18.77,37.39
506957.578000,1.065,-0.177,0.05,-6.68,7.84,16.39
506957.625000,0.999,-0.095,0.112,-19.65,21.85,14.71
506957.671000,0.961,-0.187,0.134,-11.35,19.07,27.95
506957.718000,0.941,-0.293,0.194,-18.31,18.43,6.68
506957.765000,0.918,-0.324,0.223,-11.2,-1.56,-3.97
506957.812000,0.914,-0.292,0.219,4.64,-6.26,-9.74
506957.859000,0.88,-0.233,0.225,10.53,-15.56,-8.67
506957.906000,0.831,-0.125,0.288,20.81,-18.71,5.86
506957.953000,0.979,-0.354,0.113,8.33,-48.25,16.48
506958.000000,1.023,-0.286,0.059,26.37,-18.1,2.69
506958.046000,1.016,-0.182,0.047,16.6,-12.76,0.73
506958.093000,0.98,-0.188,0.034,7.84,-8.09,11.54
506958.140000,0.957,-0.274,0.035,1.34,-1.59,14.4
506958.187000,0.919,-0.312,0.074,4.43,1.68,13.98
506958.234000,0.912,-0.331,0.099,4.27,0.31,8.3
506958.281000,0.908,-0.302,0.093,4.12,-1.8,3.45
506958.328000,0.926,-0.301,0.095,7.81,-2.23,8.45
506958.375000,0.954,-0.294,0.07,3.33,-5.31,6.56
506958.421000,0.963,-0.296,0.061,3.11,-1.8,5.07
506958.468000,0.955,-0.293,0.066,1.46,1.53,2.2
506958.515000,0.94,-0.293,0.088,-0.27,2.29,0.31
506958.562000,0.944,-0.315,0.084,-1.4,2.72,-2.29
506958.609000,0.943,-0.326,0.078,1.77,3.69,-3.51
506958.656000,0.931,-0.312,0.086,8.7,10.68,-6.35
506958.703000,0.929,-0.302,0.122,8.45,7.05,-3.36
506958.750000,0.931,-0.293,0.106,5.28,5.1,-3.11
506958.796000,0.936,-0.309,0.11,4.85,3.94,-1.25
506958.843000,0.918,-0.239,0.138,3.3,9.09,-2.23
506958.890000,0.897,-0.203,0.191,-9.06,5.37,-1.65
506958.937000,0.874,-0.232,0.281,-15.66,7.14,3.94
506958.984000,0.873,-0.294,0.414,-15.23,-11.47,-23.65
506959.031000,0.851,0.043,0.509,-16.6,4.55,-56.67
506959.078000,0.948,0.117,0.481,-30.61,-39.58,-61.77
506959.125000,1.032,0.042,0.391,-32.04,-52.98,-42.12
506959.171000,1.074,-0.034,0.291,-27.74,-66.1,-25.36
506959.218000,1.208,0.064,-0.055,-29.08,-49.59,-26.64
506959.265000,1.031,0.046,0.093,-62.81,-73.76,-30.12
506959.312000,1.018,0.044,-0.073,-71.38,-88.87,-15.78
506959.359000,0.905,-0.052,-0.398,-75.81,-114.87,-1.25
506959.406000,0.581,0.001,-0.56,-95.83,-142.92,-13.58
506959.453000,-0.157,0.071,-0.779,-119.36,-186.04,39.95
506959.500000,-0.078,0.009,-1.299,-137.7,-265.27,42.02
506959.546000,0.6,0.013,-1.566,-172.37,-160.22,-34.73
506959.593000,1.103,-0.214,-1.228,-5.07,-37.29,33.2
506959.640000,0.604,0.285,-0.897,18.49,47.7,-35.07
506959.687000,0.594,0.41,-0.762,-1.25,-9.52,1.43
506959.734000,0.788,0.189,-0.9,7.02,2.04,19.35
506959.781000,0.668,0.183,-0.794,-2.23,16.21,-3.63
506959.828000,0.626,0.181,-0.732,0.43,16.63,3.11
506959.890000,0.58,0.161,-0.704,5.43,13.67,4.52
506959.937000,0.556,0.144,-0.661,6.23,9.7,14.28
506959.984000,0.615,0.152,-0.718,-3.33,0.89,-5.28
506960.031000,0.659,0.194,-0.722,-3.63,6.44,-6.01
506960.078000,0.655,0.202,-0.714,-3.27,3.42,-2.47
506960.125000,0.677,0.19,-0.723,-2.2,-0.06,3.88
506960.171000,0.698,0.151,-0.751,-1.92,1.43,8.39
506960.218000,0.662,0.135,-0.735,-7.2,6.68,-2.5
506960.265000,0.626,0.163,-0.689,3.14,8.06,7.2
506960.312000,0.563,0.106,-0.648,-2.08,3.57,7.48
506960.359000,0.592,0.162,-0.644,-6.96,-1.34,-12.6
506960.406000,0.619,0.215,-0.673,-6.84,-9.64,-3.72
506960.453000,0.699,0.191,-0.74,-2.75,-9.28,7.05
506960.500000,0.697,0.189,-0.744,-1.98,-6.04,5.4
506960.546000,0.684,0.178,-0.753,-0.7,-4.64,8.91
506960.593000,0.675,0.145,-0.718,-1.34,1.1,0.34
506960.640000,0.641,0.178,-0.704,0.27,1.95,2.9
506960.687000,0.634,0.174,-0.708,1.98,0.06,7.57
506960.734000,0.638,0.153,-0.703,-3.23,-0.09,2.04
506960.781000,0.652,0.163,-0.714,-5.58,-2.17,-1.4
506960.828000,0.655,0.16,-0.716,-2.41,-1.46,-1.16
506960.875000,0.654,0.168,-0.713,-1.5,0.09,-0.24
506960.921000,0.652,0.165,-0.717,-1.8,-0.67,-0.27
506960.968000,0.665,0.159,-0.721,0.7,-0.24,2.59
506961.015000,0.652,0.16,-0.713,2.66,-1.46,-1.34
506961.062000,0.65,0.184,-0.726,0.21,3.78,-2.41
506961.109000,0.64,0.182,-0.709,-0.09,1.62,0.06
506961.156000,0.642,0.183,-0.71,-2.84,1.04,-0.46
506961.203000,0.65,0.187,-0.702,-2.26,0.55,0.89
506961.250000,0.639,0.204,-0.715,-3.91,-2.47,1.98
506961.296000,0.637,0.202,-0.712,-8.55,-3.91,5.58
506961.343000,0.653,0.167,-0.718,-7.69,-4.79,8.15
506961.390000,0.662,0.15,-0.736,-3.6,-2.66,3.23
506961.437000,0.654,0.166,-0.735,-1.31,1.74,-0.76
506961.484000,0.649,0.171,-0.708,1.46,2.29,2.08
506961.531000,0.642,0.177,-0.707,1.25,1.53,1.71
506961.578000,0.637,0.176,-0.701,-0.03,0.67,1.89
506961.640000,0.638,0.177,-0.711,-1.89,0.43,3.48
506961.687000,0.638,0.167,-0.702,-2.17,-0.92,4.85
506961.734000,0.647,0.166,-0.705,-1.89,-2.11,-0.18
506961.781000,0.658,0.174,-0.716,-0.67,-1.53,-1.25
506961.828000,0.653,0.178,-0.725,-0.09,0.67,-0.95
506961.875000,0.649,0.184,-0.718,-1.19,1.04,-2.44
506961.921000,0.653,0.188,-0.719,-0.4,0.85,-0.95
506961.968000,0.649,0.184,-0.725,-2.26,0.76,-1.77
506962.015000,0.654,0.188,-0.726,-0.89,1.1,-0.85
506962.078000,0.658,0.184,-0.718,-0.52,1.86,-0.89
506962.125000,0.644,0.193,-0.709,-1.8,3.27,-1.56
506962.171000,0.647,0.202,-0.707,-1.5,1.28,-1.56
506962.218000,0.645,0.196,-0.71,-0.92,2.14,1.22
506962.265000,0.652,0.179,-0.709,1.1,1.83,2.72
506962.312000,0.655,0.193,-0.719,4.15,5.43,2.56
506962.359000,0.669,0.195,-0.718,6.07,5.62,3.33
506962.406000,0.707,0.182,-0.741,20.66,12.94,13.61
506962.453000,0.712,0.172,-0.755,34.61,24.81,19.32
506962.500000,0.723,0.135,-0.765,47.21,33.17,30.52
506962.546000,0.71,0.087,-0.744,59.63,45.32,36.59
506962.593000,0.743,-0.025,-0.766,64.55,49.38,39.22
506962.640000,0.729,-0.089,-0.826,78.74,65.19,38.21
506962.687000,0.743,-0.125,-0.792,86.98,78.31,37.08
506962.734000,0.732,-0.19,-0.836,87.1,97.66,35.25
506962.781000,0.694,-0.212,-0.83,72.24,112.83,24.14
506962.828000,0.704,-0.204,-0.771,89.85,130.8,41.84
506962.875000,0.601,-0.251,-0.579,67.29,132.51,25.18
506962.921000,0.607,-0.272,-0.406,54.72,147.71,22.28
506962.968000,0.55,-0.269,0.077,3.54,144.41,-20.02
506963.015000,0.635,-0.251,0.37,-24.23,122.07,-25.24
506963.062000,0.695,-0.243,0.679,-56.7,73.34,-29.05
506963.109000,0.791,-0.253,0.874,-72.48,-9.86,13.7
506963.156000,0.972,-0.345,0.666,-106.08,-62.78,22.71
506963.203000,0.995,-0.618,0.62,-52.46,-44.65,58.41
506963.250000,1.19,-0.699,0.287,-21.67,-12.45,8.12
506963.296000,1.107,-0.66,0.295,-1.65,48.01,-35.71
506963.343000,0.935,-0.571,0.206,43.24,63.36,-34.7
506963.390000,0.819,-0.243,0.194,44.5,57.1,-45.38
506963.437000,0.783,-0.167,0.232,17.27,31.31,-31.5
506963.484000,0.788,-0.231,0.196,5.37,9.09,4.43
506963.531000,0.784,-0.313,0.238,3.11,0.52,15.2
506963.578000,0.827,-0.358,0.273,-1.71,-11.41,16.72
506963.625000,0.89,-0.382,0.294,-6.41,-13.25,14.53
506963.671000,0.963,-0.383,0.255,-1.46,-9.8,14.13
506963.718000,0.996,-0.372,0.226,-0.18,-0.79,5.86
506963.765000,0.948,-0.339,0.273,6.16,6.62,2.5
506963.812000,0.907,-0.346,0.302,9.46,3.2,-3.36
506963.859000,0.895,-0.373,0.281,10.38,-1.95,-12.76
506963.906000,0.911,-0.39,0.23,12.76,-3.78,-16.27
506963.953000,0.905,-0.368,0.191,17.98,3.48,-19.2
506964.000000,0.877,-0.31,0.191,17.27,6.71,-17.15
506964.046000,0.854,-0.245,0.237,12.33,6.71,-8.73
506964.093000,0.862,-0.256,0.239,6.47,2.08,1.92
506964.140000,0.875,-0.29,0.249,2.44,-1.25,6.04
506964.187000,0.902,-0.316,0.266,3.36,-1.5,6.65
506964.234000,0.917,-0.309,0.262,4.12,-3.2,4.94
506964.281000,0.933,-0.295,0.257,6.47,-1.04,5.68
506964.328000,0.932,-0.297,0.235,3.39,3.2,2.59
506964.375000,0.913,-0.308,0.253,2.11,5.25,2.75
506964.421000,0.879,-0.32,0.276,0.4,3.66,2.84
506964.468000,0.899,-0.344,0.258,-1.95,0.31,1.77
506964.515000,0.908,-0.314,0.261,-4.39,4.09,-1.62
506964.562000,0.906,-0.318,0.266,-5.55,5.52,2.56
506964.609000,0.896,-0.323,0.307,-5.83,7.42,3.66
506964.656000,0.907,-0.339,0.307,-3.6,5.95,3.14
506964.703000,0.908,-0.336,0.307,-0.21,7.35,-1.56
506964.750000,0.904,-0.319,0.324,1.04,5.04,-5.71
506964.796000,0.9,-0.325,0.326,4.55,3.14,-8.36
506964.843000,0.886,-0.308,0.324,5.55,0.89,-9.74
506964.890000,0.883,-0.277,0.318,8.18,0.89,-6.9
506964.937000,0.885,-0.272,0.311,8.97,0.73,-4.12
506964.984000,0.885,-0.28,0.301,7.02,0.95,-2.44
506965.031000,0.89,-0.294,0.285,6.56,1.4,-1.53
506965.078000,0.884,-0.286,0.289,5.89,2.59,-2.01
506965.125000,0.889,-0.27,0.29,3.17,1.68,-0.61
506965.171000,0.874,-0.261,0.297,1.4,4.18,1.98
506965.218000,0.871,-0.271,0.331,-0.73,2.17,4.64
506965.265000,0.901,-0.294,0.322,-2.35,-0.09,6.59
506965.328000,0.912,-0.304,0.326,-1.68,0.52,7.26
506965.375000,0.907,-0.311,0.333,-0.98,-1.01,5.58
506965.421000,0.905,-0.307,0.323,0.89,0.52,-0.21
506965.468000,0.896,-0.313,0.318,3.17,0.46,0.09
506965.515000,0.887,-0.308,0.318,3.54,-0.03,-1.53
506965.562000,0.884,-0.306,0.314,5.43,-1.62,1.59
506965.609000,0.891,-0.3,0.307,5.07,-3.02,1.01
506965.656000,0.9,-0.282,0.302,3.57,-3.17,-0.49
506965.703000,0.902,-0.289,0.307,2.14,-3.45,0.92
506965.750000,0.913,-0.312,0.299,0.03,-2.44,-1.25
506965.796000,0.896,-0.289,0.308,1.04,-0.12,-1.83
506965.843000,0.88,-0.266,0.305,-1.31,-0.67,-0.06
506965.890000,0.884,-0.271,0.325,-2.26,-2.78,2.81
506965.937000,0.911,-0.317,0.298,-1.31,-4.82,2.59
506965.984000,0.928,-0.313,0.311,1.46,-4.88,-2.9
506966.031000,0.924,-0.313,0.289,2.75,-3.45,-5.4
506966.078000,0.899,-0.314,0.275,3.97,1.22,-7.42
506966.125000,0.864,-0.265,0.294,3.39,1.56,-4.18
506966.171000,0.871,-0.258,0.289,0.34,-0.31,1.5
506966.218000,0.903,-0.282,0.28,-1.13,-1.4,4.61
506966.265000,0.916,-0.283,0.292,-0.7,0.0,2.81
506966.328000,0.922,-0.288,0.298,0.12,1.43,0.46
506966.375000,0.917,-0.29,0.286,-0.49,2.62,-2.17
506966.421000,0.904,-0.284,0.299,0.12,3.02,-1.56
506966.468000,0.891,-0.274,0.314,-0.58,3.39,-0.82
506966.515000,0.897,-0.276,0.313,-1.07,2.2,-0.27
506966.562000,0.903,-0.282,0.313,0.21,3.02,0.64
506966.609000,0.904,-0.276,0.308,-0.43,3.27,0.15
506966.656000,0.919,-0.257,0.302,-3.48,5.92,-2.69
506966.703000,0.906,-0.27,0.316,-4.12,8.06,-0.27
506966.750000,0.887,-0.302,0.326,-3.81,7.81,-0.55
506966.796000,0.877,-0.297,0.337,-1.25,6.2,-2.04
506966.843000,0.878,-0.268,0.319,0.06,1.86,-1.74
506966.890000,0.892,-0.263,0.317,-3.27,0.15,-0.24
506966.937000,0.907,-0.285,0.313,-4.18,2.11,1.83
506966.984000,0.901,-0.301,0.323,-2.32,5.98,1.56
506967.031000,0.885,-0.288,0.339,-2.04,5.65,0.12
506967.078000,0.888,-0.281,0.342,-3.11,4.21,-0.7
506967.125000,0.888,-0.299,0.348,-3.17,2.78,-0.09
506967.171000,0.887,-0.29,0.343,-0.79,2.2,-1.68
506967.218000,0.88,-0.274,0.354,-1.22,1.92,-1.37
506967.265000,0.883,-0.283,0.362,-0.79,1.46,0.64
506967.312000,0.892,-0.289,0.352,-0.7,0.85,-0.61
506967.359000,0.891,-0.283,0.344,1.43,1.16,-0.09
506967.406000,0.887,-0.272,0.344,0.89,0.7,-1.65
506967.453000,0.885,-0.265,0.341,0.34,-0.76,-0.92
506967.500000,0.897,-0.282,0.33,-0.67,-1.04,-0.27
506967.546000,0.897,-0.284,0.335,-0.4,2.04,-1.56
506967.609000,0.882,-0.278,0.342,0.03,1.13,0.15
506967.656000,0.891,-0.288,0.337,0.06,0.73,-0.31
506967.703000,0.883,-0.272,0.353,-1.1,-0.52,-0.79
506967.750000,0.888,-0.271,0.337,-0.67,0.06,0.18
506967.796000,0.894,-0.272,0.343,-1.71,1.65,0.52
506967.843000,0.895,-0.282,0.339,-1.83,1.77,0.49
506967.890000,0.891,-0.279,0.333,-1.65,2.44,0.12
506967.937000,0.881,-0.269,0.352,-2.11,2.2,-0.7
506967.984000,0.884,-0.276,0.34,-3.51,-0.76,-0.21
506968.031000,0.89,-0.281,0.346,-3.48,-0.55,-0.49
506968.078000,0.889,-0.283,0.348,-3.27,0.24,-0.06
506968.125000,0.89,-0.28,0.346,-3.14,1.1,0.18
506968.171000,0.889,-0.286,0.354,-2.96,0.4,0.92
506968.218000,0.891,-0.298,0.357,-1.89,0.27,0.31
506968.265000,0.879,-0.287,0.366,0.73,0.31,-0.24
506968.312000,0.866,-0.292,0.377,3.14,0.79,1.22
506968.359000,0.85,-0.312,0.429,9.52,2.32,4.61
506968.406000,0.901,-0.358,0.528,19.07,-0.67,-1.74
506968.453000,0.958,-0.285,0.668,40.56,6.74,-19.14
506968.515000,0.875,-0.018,0.911,60.03,29.21,-41.26
506968.562000,0.716,0.001,1.087,59.94,1.43,-19.23
506968.609000,0.697,-0.038,1.021,56.64,-35.71,4.27
506968.656000,0.914,-0.19,0.698,34.97,-93.81,20.69
506968.703000,1.109,-0.181,0.362,1.53,-87.68,-12.36
506968.750000,0.941,0.049,0.361,-57.44,-72.76,-77.85
506968.796000,0.709,0.146,0.105,-84.05,-113.47,-49.38
506968.843000,0.239,0.109,-0.22,-104.34,-163.73,1.56
506968.890000,-0.047,-0.0,-1.066,-122.62,-247.51,46.75
506968.937000,0.334,0.071,-1.741,-192.08,-260.9,-37.66
506968.984000,1.487,-0.56,-1.082,-95.28,-126.35,1.25
506969.031000,0.908,-0.049,-0.707,65.37,56.73,-25.27
506969.078000,0.471,0.515,-0.298,-7.14,5.92,-82.4
506969.125000,0.866,0.336,-0.514,1.77,-47.36,29.36
506969.171000,1.141,-0.036,-0.674,2.23,-12.57,14.62
506969.218000,0.983,0.041,-0.619,1.86,12.39,-19.44
506969.265000,0.849,0.154,-0.534,-1.37,8.45,-18.86
506969.312000,0.836,0.145,-0.496,1.68,10.74,-0.4
506969.359000,0.809,0.094,-0.464,-0.03,5.34,4.21
506969.406000,0.805,0.081,-0.477,-5.98,2.62,-9.22
506969.453000,0.81,0.12,-0.461,-5.71,1.13,-9.49
506969.500000,0.793,0.121,-0.453,-2.93,-0.58,1.19
506969.546000,0.822,0.105,-0.464,-6.65,-2.96,1.07
506969.609000,0.846,0.112,-0.493,-5.8,-4.49,-1.8
506969.656000,0.859,0.083,-0.492,-5.25,0.92,-0.58
506969.703000,0.864,0.093,-0.491,-1.83,-0.15,2.44
506969.750000,0.866,0.065,-0.489,0.7,2.72,-0.15
506969.796000,0.834,0.108,-0.474,4.0,4.43,1.65
506969.843000,0.82,0.124,-0.46,-0.46,2.08,-2.2
506969.890000,0.832,0.134,-0.463,-1.01,-0.98,2.17
506969.937000,0.85,0.117,-0.466,-2.84,-2.01,1.1
506969.984000,0.852,0.105,-0.474,-3.05,-2.9,2.08
506970.031000,0.864,0.084,-0.491,1.37,-2.17,5.01
506970.078000,0.862,0.074,-0.486,4.36,2.9,3.94
506970.125000,0.847,0.087,-0.484,3.2,2.5,0.18
506970.171000,0.848,0.098,-0.481,1.71,1.98,-2.26
506970.218000,0.836,0.112,-0.476,0.15,1.53,-2.75
506970.265000,0.837,0.11,-0.483,0.43,-0.24,-1.83
506970.328000,0.818,0.107,-0.48,-0.79,-1.13,-2.11
506970.375000,0.842,0.111,-0.493,1.01,-1.8,0.06
506970.421000,0.84,0.112,-0.488,1.56,-1.34,0.4
506970.484000,0.84,0.116,-0.494,-0.52,-1.65,0.0
506970.531000,0.839,0.107,-0.484,0.79,-0.98,2.26
506970.578000,0.851,0.113,-0.499,-0.92,-1.4,0.34
506970.625000,0.853,0.115,-0.499,-0.52,-1.19,1.56
506970.671000,0.859,0.11,-0.499,-2.93,-1.92,-0.24
506970.718000,0.845,0.102,-0.499,-1.62,1.86,2.75
506970.765000,0.836,0.093,-0.493,-0.27,0.49,4.43
506970.812000,0.832,0.082,-0.487,-0.06,0.49,3.14
506970.859000,0.83,0.079,-0.487,-0.24,-0.73,2.72
506970.906000,0.837,0.084,-0.501,1.22,-1.43,2.38
506970.953000,0.83,0.097,-0.498,1.83,0.4,2.62
506971.000000,0.85,0.094,-0.494,1.04,-1.13,4.58
506971.046000,0.843,0.084,-0.489,-0.89,0.27,2.17
506971.093000,0.849,0.09,-0.495,-2.04,-0.61,0.95
506971.140000,0.847,0.078,-0.489,-0.64,0.03,3.33
506971.187000,0.846,0.073,-0.492,0.12,0.79,3.36
506971.234000,0.84,0.064,-0.488,0.4,0.64,1.71
506971.281000,0.844,0.084,-0.499,0.0,0.79,-2.01
506971.328000,0.83,0.088,-0.483,-0.82,0.95,-0.58
506971.375000,0.836,0.085,-0.491,-0.61,-0.31,0.7
506971.421000,0.841,0.085,-0.504,-0.89,-0.49,0.55
506971.484000,0.844,0.086,-0.498,-1.04,0.15,-0.67
506971.531000,0.841,0.089,-0.494,-1.16,0.4,-0.43
506971.578000,0.84,0.088,-0.492,-1.28,0.18,0.73
506971.625000,0.842,0.083,-0.492,-0.85,-0.64,0.37
506971.671000,0.858,0.071,-0.506,3.08,1.83,3.02
506971.718000,0.857,0.052,-0.506,9.0,7.72,4.24
506971.765000,0.843,0.052,-0.487,11.78,10.93,1.89
506971.828000,0.896,0.032,-0.509,15.81,10.83,3.69
506971.875000,0.909,0.003,-0.511,27.16,22.4,5.92
506971.937000,0.9,-0.034,-0.589,61.59,44.22,19.56
506971.984000,0.918,-0.103,-0.612,88.08,66.5,29.69
506972.031000,0.8,-0.097,-0.862,124.39,109.53,33.36
506972.078000,0.808,-0.154,-0.777,125.0,135.2,27.47
506972.125000,0.727,-0.117,-0.745,96.74,161.2,-0.76
506972.171000,0.76,-0.1,-0.425,106.36,159.0,10.71
506972.218000,0.707,-0.017,-0.101,79.84,144.44,1.62
506972.265000,0.671,0.028,0.196,38.94,122.5,-22.83
506972.312000,0.665,0.137,0.409,-28.44,101.2,-32.72
506972.359000,0.627,0.062,0.634,-34.18,84.11,8.33
506972.421000,0.682,-0.179,0.825,-77.97,-4.06,41.44
506972.468000,0.693,-0.242,0.826,-131.57,-40.5,17.58
506972.515000,0.78,-0.494,0.739,-119.42,-67.48,60.95
506972.562000,0.857,-0.724,0.668,-54.9,-52.34,86.73
506972.609000,1.101,-0.652,0.468,-22.13,-38.94,16.33
506972.656000,1.047,-0.494,0.478,-7.72,1.04,-39.61
506972.703000,1.129,-0.221,0.308,1.1,1.31,-60.88
506972.750000,0.972,-0.191,0.333,-38.42,27.86,-67.72
506972.796000,0.871,-0.284,0.347,-4.12,24.05,-13.73
506972.843000,0.806,-0.341,0.323,13.95,12.57,4.21
506972.890000,0.805,-0.394,0.311,-3.14,-1.92,-19.75
506972.937000,0.824,-0.325,0.302,2.9,-3.54,-17.52
506972.984000,0.871,-0.274,0.257,4.97,-6.32,-0.64
506973.031000,0.908,-0.288,0.258,9.25,-2.84,12.21
506973.078000,0.923,-0.304,0.277,8.55,0.67,11.66
506973.125000,0.922,-0.272,0.276,8.82,3.94,7.42
506973.187000,0.896,-0.271,0.307,9.46,2.87,6.78
506973.250000,0.911,-0.317,0.291,9.67,1.04,1.01
506973.296000,0.901,-0.331,0.29,10.28,1.89,-1.53
506973.343000,0.895,-0.346,0.308,16.33,2.9,3.85
506973.390000,0.905,-0.359,0.298,19.23,5.07,4.15
506973.437000,0.877,-0.25,0.332,21.12,12.27,3.88
506973.484000,0.866,-0.224,0.347,7.42,8.51,3.69
506973.531000,0.88,-0.28,0.353,3.14,8.0,5.68
506973.593000,0.88,-0.361,0.36,11.17,3.94,2.72
506973.640000,0.88,-0.286,0.336,9.52,0.03,-7.51
506973.687000,0.886,-0.285,0.325,8.45,-0.79,-4.64
506973.734000,0.877,-0.298,0.321,8.45,-0.37,1.8
506973.781000,0.858,-0.267,0.345,4.09,-2.29,1.16
506973.828000,0.893,-0.286,0.317,-0.82,-2.32,1.98
506973.875000,0.86,-0.267,0.372,-0.92,-0.89,5.16
506973.921000,0.902,-0.342,0.332,-4.15,-5.52,3.91
506973.968000,0.896,-0.308,0.356,-0.06,0.64,-1.53
506974.015000,0.89,-0.277,0.342,-1.16,-0.92,-1.16
506974.062000,0.898,-0.301,0.329,-0.98,2.08,-3.05
506974.109000,0.875,-0.284,0.351,-0.52,3.14,-1.71
506974.171000,0.875,-0.296,0.342,-4.15,-0.18,-0.55
506974.218000,0.882,-0.304,0.339,-2.53,0.76,0.46
506974.265000,0.884,-0.294,0.337,-3.11,1.59,0.03
506974.312000,0.886,-0.304,0.338,-1.89,2.78,0.85
506974.359000,0.859,-0.283,0.377,-2.2,1.16,0.27
506974.406000,0.872,-0.32,0.363,-1.65,-3.97,4.61
506974.453000,0.856,-0.321,0.405,4.67,-2.66,4.24
506974.500000,0.847,-0.372,0.529,19.23,-3.27,13.86
506974.546000,0.883,-0.425,0.669,31.59,-0.64,-3.39
506974.593000,0.795,-0.156,0.922,68.0,12.67,-29.63
506974.640000,0.867,0.108,0.978,56.89,15.81,-48.46
506974.687000,0.827,0.012,1.04,56.34,9.55,-12.63
506974.734000,0.92,-0.17,0.848,41.51,-38.76,32.59
506974.781000,1.056,-0.392,0.421,2.32,-49.59,-15.75
506974.828000,0.826,-0.2,0.461,-48.4,-50.36,-88.41
506974.875000,0.741,0.026,0.153,-68.27,-97.51,-72.3
506974.921000,0.504,0.066,-0.109,-69.61,-141.48,-31.07
506974.968000,0.387,0.075,-0.465,-75.84,-176.0,-7.97
506975.015000,0.298,0.185,-0.979,-102.33,-241.95,1.04
506975.062000,0.767,0.102,-1.556,-169.16,-226.42,-22.13
506975.109000,1.756,-0.703,-1.178,-78.95,-102.39,14.31
506975.156000,0.567,0.24,-0.364,10.99,50.26,-68.15
506975.203000,0.491,0.49,-0.231,-3.51,3.63,-34.79
506975.250000,0.987,0.004,-0.535,0.92,-28.63,45.05
506975.296000,1.033,-0.039,-0.482,4.91,0.55,-11.47
506975.343000,0.855,0.147,-0.404,-1.43,6.44,-13.12
506975.390000,0.873,0.062,-0.444,-3.05,-5.89,1.28
506975.437000,0.862,0.037,-0.443,0.76,-4.12,1.89
506975.484000,0.859,0.04,-0.41,3.14,-2.75,2.47
506975.531000,0.871,0.079,-0.432,-3.27,-1.04,-13.03
506975.578000,0.842,0.117,-0.425,-0.79,0.34,-5.13
506975.625000,0.866,0.088,-0.437,-2.56,-3.63,4.21
506975.671000,0.908,0.05,-0.451,-1.16,-4.49,3.51
506975.718000,0.898,0.067,-0.447,-4.55,2.01,-5.74
506975.765000,0.898,0.067,-0.448,-5.83,1.31,-3.97
506975.812000,0.907,0.085,-0.464,0.09,4.67,1.07
506975.859000,0.878,0.068,-0.433,1.04,7.57,6.74
506975.906000,0.852,0.056,-0.415,0.12,6.84,3.85
506975.953000,0.846,0.072,-0.412,-1.86,4.33,-0.43
506976.000000,0.851,0.058,-0.4,-2.66,1.22,1.62
506976.046000,0.878,0.051,-0.417,-2.2,-1.01,0.82
506976.093000,0.872,0.05,-0.42,-1.56,0.92,-2.29
506976.140000,0.868,0.066,-0.415,-1.28,0.31,-3.33
506976.187000,0.877,0.056,-0.428,-1.22,-0.37,-1.43
506976.234000,0.872,0.062,-0.416,1.16,0.0,0.12
506976.281000,0.87,0.078,-0.414,0.85,-0.82,-1.74
506976.328000,0.872,0.074,-0.417,-0.37,-1.46,-1.34
506976.375000,0.876,0.079,-0.426,0.0,-1.31,-2.59
506976.421000,0.872,0.086,-0.428,-1.65,-2.53,-1.01
506976.468000,0.89,0.074,-0.437,-1.46,-2.53,-1.68
506976.515000,0.88,0.08,-0.439,-2.29,-0.64,-1.68
506976.578000,0.879,0.094,-0.434,-0.09,0.12,-0.4
506976.625000,0.866,0.088,-0.441,-2.26,-1.22,-0.64
506976.671000,0.871,0.083,-0.431,-1.19,-1.07,-1.68
506976.718000,0.87,0.086,-0.433,-3.33,-2.08,-4.0
506976.765000,0.857,0.102,-0.433,-3.81,-1.1,-6.53
506976.812000,0.859,0.104,-0.428,-1.89,-4.46,0.24
506976.859000,0.883,0.084,-0.444,0.67,-3.11,6.29
506976.906000,0.886,0.074,-0.451,0.61,-0.92,0.43
506976.953000,0.873,0.094,-0.445,0.27,0.49,-1.5
506977.000000,0.865,0.094,-0.443,-0.18,-1.16,0.52
506977.046000,0.869,0.095,-0.451,0.58,-1.22,0.18
506977.093000,0.864,0.095,-0.441,1.65,-0.4,1.01
506977.140000,0.867,0.094,-0.452,0.43,-1.19,0.73
506977.187000,0.872,0.088,-0.454,0.4,-0.79,-0.58
506977.234000,0.868,0.094,-0.451,0.09,-0.21,-4.3
506977.281000,0.862,0.103,-0.461,0.49,-1.16,-1.5
506977.343000,0.87,0.104,-0.461,0.49,-0.76,-0.18
506977.390000,0.867,0.103,-0.452,0.27,0.52,-0.21
506977.437000,0.869,0.107,-0.453,-1.01,0.0,-0.64
506977.484000,0.87,0.096,-0.457,-0.64,0.03,0.03
506977.531000,0.863,0.093,-0.449,-0.09,1.25,0.18
506977.578000,0.852,0.092,-0.44,-0.92,0.27,-1.59
506977.625000,0.854,0.099,-0.445,-0.18,-0.73,0.18
506977.671000,0.846,0.087,-0.436,1.07,-0.31,0.52
506977.718000,0.851,0.102,-0.443,0.58,-2.14,-0.67
506977.765000,0.868,0.088,-0.471,5.89,-1.25,6.65
506977.812000,0.917,-0.004,-0.512,17.76,8.55,9.06
506977.859000,0.945,0.031,-0.532,32.65,28.02,-0.31
506977.906000,0.976,-0.005,-0.601,54.66,42.48,15.63
506977.953000,1.002,-0.06,-0.771,97.42,97.35,31.59
506978.000000,0.863,-0.076,-0.84,99.95,114.29,4.85
506978.062000,0.762,-0.037,-0.667,75.96,132.11,-16.54
506978.109000,0.678,0.031,-0.614,82.98,126.74,-1.62
506978.156000,0.725,-0.039,-0.218,102.39,114.81,19.14
506978.203000,0.69,0.039,-0.135,88.02,107.52,-15.66
506978.250000,0.643,0.186,0.197,41.38,116.7,-46.08
506978.296000,0.712,0.214,0.478,19.5,97.6,-24.87
506978.343000,0.776,0.18,0.74,-39.0,56.12,6.07
506978.390000,0.782,0.204,0.83,-103.06,10.77,32.75
506978.437000,0.696,0.115,0.807,-171.97,-23.59,43.76
506978.484000,0.703,-0.317,0.716,-160.83,-60.55,127.17
506978.531000,1.042,-0.679,0.44,-155.77,-60.73,100.59
506978.578000,1.067,-0.822,0.517,-51.12,18.16,34.36
506978.625000,0.879,-0.633,0.713,47.24,18.13,34.03
506978.671000,0.971,-0.442,0.371,57.25,-18.52,-8.48
506978.718000,1.033,-0.258,0.031,21.21,-15.11,-62.5
506978.765000,0.889,-0.134,0.157,21.79,17.3,-23.71
506978.812000,0.759,-0.176,0.292,41.14,14.01,51.09
506978.859000,0.795,-0.326,0.366,4.09,-9.77,39.37
506978.906000,0.849,-0.44,0.335,-17.27,-20.45,10.01
506978.953000,0.944,-0.486,0.272,-9.58,-18.01,-1.13
506979.000000,0.935,-0.375,0.246,6.23,-2.62,3.85
506979.046000,0.885,-0.326,0.293,5.95,0.85,7.2
506979.093000,0.863,-0.384,0.283,2.81,-5.22,7.51
506979.140000,0.884,-0.436,0.241,1.68,-8.61,3.02
506979.187000,0.86,-0.419,0.24,7.81,-0.52,-3.08
506979.234000,0.829,-0.375,0.285,8.85,-1.43,2.2
506979.281000,0.855,-0.402,0.272,7.08,-4.64,5.62
506979.328000,0.877,-0.415,0.252,7.08,-4.64,6.07
506979.375000,0.896,-0.416,0.242,8.27,-0.55,2.2
506979.421000,0.891,-0.397,0.244,4.88,3.33,-0.95
506979.468000,0.862,-0.372,0.267,3.54,3.72,-0.12
506979.531000,0.848,-0.393,0.291,0.92,-1.92,1.62
506979.578000,0.849,-0.416,0.269,-0.46,-4.39,1.07
506979.625000,0.855,-0.424,0.283,-0.37,-2.47,1.4
506979.671000,0.863,-0.444,0.265,0.61,-5.34,5.1
506979.718000,0.888,-0.434,0.247,1.31,-2.44,0.89
506979.765000,0.873,-0.382,0.268,3.23,-0.52,0.43
506979.812000,0.886,-0.414,0.228,1.34,-4.21,3.05
506979.859000,0.88,-0.417,0.244,-0.15,0.03,-1.53
506979.906000,0.876,-0.426,0.248,2.08,-0.18,-0.4
506979.953000,0.866,-0.403,0.251,2.29,2.47,-3.6
506980.000000,0.85,-0.375,0.275,0.46,2.62,-0.43
506980.046000,0.848,-0.392,0.273,-1.8,0.58,1.92
506980.093000,0.864,-0.407,0.268,-2.44,0.89,1.5
506980.140000,0.868,-0.399,0.279,-1.83,0.34,1.8
506980.187000,0.889,-0.429,0.255,0.7,0.37,1.4
506980.234000,0.876,-0.404,0.25,1.8,1.95,-4.55
506980.281000,0.861,-0.387,0.255,0.34,-0.95,-3.45
506980.328000,0.86,-0.406,0.247,0.98,-2.99,-0.55
506980.375000,0.861,-0.4,0.263,0.49,-2.56,-2.08
506980.421000,0.881,-0.401,0.232,-0.89,-2.2,0.15
506980.468000,0.875,-0.4,0.247,0.06,1.1,2.17
506980.515000,0.842,-0.405,0.277,0.7,-0.64,4.21
506980.562000,0.872,-0.433,0.26,1.65,-4.76,2.5
506980.609000,0.896,-0.426,0.24,1.62,-4.03,-0.98
506980.656000,0.901,-0.396,0.222,1.07,0.4,-3.27
506980.703000,0.879,-0.37,0.233,0.15,3.85,-3.23
506980.750000,0.854,-0.362,0.261,-2.35,3.17,-0.37
506980.796000,0.856,-0.418,0.253,-3.78,-0.24,2.14
506980.843000,0.843,-0.416,0.269,-5.04,-2.62,2.62
506980.890000,0.873,-0.413,0.263,0.64,-4.27,1.37
506980.937000,0.887,-0.409,0.244,0.0,-2.69,0.34
506980.984000,0.893,-0.395,0.23,-1.86,-0.7,-2.87
506981.031000,0.876,-0.403,0.239,-1.95,1.22,0.0
506981.078000,0.862,-0.405,0.257,-0.31,0.98,2.14
506981.125000,0.87,-0.426,0.249,-1.04,-3.36,1.56
506981.171000,0.882,-0.414,0.234,1.34,-0.52,-1.37
506981.218000,0.889,-0.415,0.231,0.46,-1.74,-0.43
506981.265000,0.871,-0.408,0.245,-0.03,0.24,-0.73
506981.312000,0.864,-0.395,0.244,0.18,-1.77,-1.68
506981.359000,0.868,-0.385,0.237,-2.14,-3.27,-3.48
506981.406000,0.877,-0.402,0.22,-2.72,-3.57,-0.76
506981.453000,0.879,-0.409,0.231,-1.04,-2.84,1.5
506981.500000,0.892,-0.415,0.212,-0.15,-1.62,0.24
506981.546000,0.884,-0.398,0.218,0.79,0.43,-0.67
506981.593000,0.866,-0.391,0.233,0.03,1.1,0.58
506981.640000,0.865,-0.399,0.238,-0.52,0.0,1.13
506981.687000,0.88,-0.422,0.232,-0.06,-1.37,1.92
506981.734000,0.887,-0.405,0.228,-0.46,-1.19,-0.67
506981.781000,0.895,-0.404,0.231,-2.78,-5.13,-1.53
506981.828000,0.902,-0.427,0.22,-4.06,-6.99,-4.73
506981.890000,0.879,-0.388,0.183,-0.92,-1.46,-8.24
506981.937000,0.871,-0.365,0.194,2.11,3.94,-0.64
506981.984000,0.874,-0.356,0.18,3.11,9.06,3.27
506982.031000,0.886,-0.361,0.174,-2.35,9.52,3.33
506982.078000,0.869,-0.379,0.217,-4.58,4.27,8.7
506982.125000,0.871,-0.409,0.234,-5.4,-0.03,7.9
506982.171000,0.883,-0.436,0.256,-5.58,-6.68,0.34
506982.218000,0.905,-0.448,0.232,-4.85,-5.68,-3.75
506982.265000,0.893,-0.421,0.225,0.21,0.67,-1.98
506982.312000,0.878,-0.408,0.225,1.04,4.73,-1.07
506982.359000,0.867,-0.405,0.222,2.62,4.06,1.46
506982.406000,0.866,-0.405,0.219,3.27,2.2,0.64
506982.453000,0.87,-0.382,0.213,0.7,-1.22,-0.92
506982.500000,0.886,-0.381,0.201,-0.55,-2.69,0.27
506982.546000,0.89,-0.407,0.212,-0.98,-2.23,2.14
506982.593000,0.887,-0.407,0.221,-1.8,-0.7,-2.32
506982.640000,0.877,-0.398,0.225,-1.37,-0.06,0.15
506982.687000,0.867,-0.4,0.233,-1.53,1.01,0.55
506982.734000,0.88,-0.421,0.214,-1.56,-0.92,1.1
506982.781000,0.894,-0.409,0.231,0.06,2.2,-1.4
506982.828000,0.91,-0.426,0.235,2.26,-1.28,1.89
506982.875000,0.933,-0.407,0.178,5.16,3.27,-7.57
506982.921000,0.898,-0.327,0.223,6.59,7.51,-9.37
506982.968000,0.892,-0.296,0.192,-0.18,8.97,-8.67
506983.015000,0.874,-0.303,0.198,-13.06,14.83,-6.74
506983.062000,0.902,-0.443,0.174,-22.46,12.15,-2.84
506983.109000,0.862,-0.469,0.198,-19.04,18.46,-4.43
506983.156000,0.763,-0.378,0.322,-11.29,13.55,2.75
506983.203000,0.796,-0.403,0.355,-4.61,-6.5,19.1
506983.250000,0.902,-0.487,0.266,-5.22,-15.26,8.0
506983.296000,0.958,-0.479,0.212,5.07,-5.83,-6.59
506983.343000,0.933,-0.401,0.213,8.58,3.48,-11.11
506983.390000,0.872,-0.348,0.23,7.57,5.01,-1.68
506983.437000,0.842,-0.38,0.244,6.44,3.94,0.92
506983.484000,0.862,-0.412,0.225,3.36,-0.34,-2.01
506983.531000,0.871,-0.388,0.208,5.1,2.26,-0.98
506983.578000,0.867,-0.343,0.237,0.58,3.85,3.97
506983.640000,0.856,-0.356,0.271,-1.92,0.89,12.73
506983.687000,0.873,-0.398,0.289,-6.87,-5.01,6.93
506983.734000,0.905,-0.435,0.252,-2.04,-6.9,4.76
506983.781000,0.897,-0.448,0.26,2.56,-3.78,-0.49
506983.828000,0.873,-0.419,0.277,6.93,-2.75,-0.76
506983.875000,0.894,-0.443,0.224,9.46,-5.22,-0.89
506983.921000,0.89,-0.396,0.202,9.4,0.15,-7.57
506983.968000,0.877,-0.368,0.217,7.29,1.77,-4.76
506984.015000,0.87,-0.373,0.219,2.5,4.09,-0.98
506984.062000,0.87,-0.378,0.226,-1.98,2.53,-1.1
506984.109000,0.866,-0.381,0.234,-3.05,2.11,0.0
506984.156000,0.868,-0.382,0.241,-5.13,0.73,-0.67
506984.203000,0.865,-0.384,0.249,-6.56,-0.73,0.52
506984.250000,0.877,-0.397,0.247,-6.38,-0.15,1.22
506984.296000,0.889,-0.409,0.241,-6.01,2.23,0.52
506984.359000,0.868,-0.385,0.269,-3.78,2.9,1.46
506984.406000,0.87,-0.388,0.258,-3.91,1.22,1.01
506984.453000,0.887,-0.426,0.243,-2.93,0.21,1.4
506984.500000,0.881,-0.421,0.245,1.8,1.53,1.07
506984.546000,0.872,-0.39,0.25,2.23,0.37,-0.49
506984.593000,0.88,-0.387,0.232,0.73,0.76,-0.37
506984.640000,0.875,-0.399,0.233,0.73,2.01,1.28
506984.687000,0.869,-0.403,0.249,-0.64,2.26,1.04
506984.734000,0.87,-0.416,0.247,0.55,1.16,2.32
506984.781000,0.872,-0.412,0.254,1.37,1.13,1.62
506984.828000,0.864,-0.395,0.269,2.35,0.82,0.37
506984.875000,0.864,-0.395,0.27,2.14,-1.46,1.43
506984.921000,0.863,-0.41,0.265,3.39,-1.56,0.31
506984.968000,0.859,-0.41,0.29,4.21,-4.73,0.92
506985.015000,0.894,-0.437,0.252,6.56,-6.23,1.04
506985.062000,0.908,-0.42,0.237,10.74,-0.7,-1.28
506985.109000,0.893,-0.383,0.245,11.87,1.5,-1.37
506985.156000,0.889,-0.381,0.225,9.92,2.26,-2.72
506985.203000,0.873,-0.382,0.244,7.93,1.74,-2.75
506985.250000,0.878,-0.39,0.24,7.05,0.24,-2.78
506985.296000,0.872,-0.362,0.256,4.33,-1.19,-4.79
506985.343000,0.887,-0.367,0.248,3.05,-1.62,-2.17
506985.390000,0.886,-0.371,0.263,0.15,-0.21,-3.3
506985.437000,0.888,-0.382,0.265,0.95,-0.09,-1.68
506985.484000,0.878,-0.368,0.268,1.13,1.22,-4.12
506985.531000,0.874,-0.355,0.277,1.13,1.22,-3.72
506985.578000,0.884,-0.375,0.25,1.43,0.21,-2.47
506985.625000,0.873,-0.358,0.265,2.38,1.62,-2.56
506985.671000,0.873,-0.354,0.257,1.95,0.18,-0.64
506985.718000,0.877,-0.356,0.247,0.58,0.76,0.06
506985.765000,0.879,-0.355,0.247,0.21,2.2,1.8
506985.812000,0.876,-0.354,0.261,-1.71,1.74,2.53
506985.859000,0.878,-0.361,0.269,-2.72,1.43,2.78
506985.906000,0.887,-0.378,0.269,-2.62,0.7,2.08
506985.953000,0.895,-0.377,0.266,-2.26,0.98,0.73
506986.000000,0.901,-0.38,0.255,-0.79,3.11,0.46
506986.046000,0.873,-0.365,0.292,-1.5,2.84,-0.18
506986.093000,0.877,-0.368,0.276,-1.8,0.85,-0.21
506986.140000,0.884,-0.364,0.256,-3.51,1.1,-2.11
506986.187000,0.875,-0.361,0.273,-4.0,0.7,0.89
506986.234000,0.873,-0.375,0.277,-3.42,1.01,0.18
506986.281000,0.849,-0.348,0.316,-2.84,-0.49,1.62
506986.328000,0.834,-0.356,0.338,0.06,-5.55,5.89
506986.375000,0.83,-0.379,0.455,5.98,-8.15,12.48
506986.421000,0.809,-0.448,0.583,20.2,-7.2,-1.65
506986.468000,0.733,-0.287,0.811,38.85,-20.57,-17.4
506986.515000,0.764,-0.088,0.927,35.13,-34.27,-15.26
506986.562000,0.823,0.004,0.88,14.95,-82.74,-8.45
506986.609000,1.013,-0.251,0.53,8.76,-134.8,73.15
506986.656000,1.381,-0.647,-0.168,-62.32,-97.42,-20.45
506986.703000,0.847,-0.333,0.035,-90.67,-46.85,-135.53
506986.750000,0.497,-0.112,-0.348,-89.88,-121.95,-78.01
506986.796000,0.32,-0.026,-0.617,-99.34,-175.45,-62.87
506986.843000,0.416,0.138,-0.977,-120.24,-190.8,-85.39
506986.890000,0.639,0.501,-1.443,-184.36,-162.63,-129.83
506986.937000,0.808,0.158,-1.109,-102.33,-92.2,58.17
506986.984000,1.045,-0.298,-0.978,-24.2,-30.52,91.65
506987.031000,0.613,0.101,-0.617,3.51,34.85,-19.2
506987.078000,0.704,0.157,-0.564,-14.92,-9.8,-12.12
506987.125000,0.784,0.158,-0.619,14.47,1.92,13.86
506987.171000,0.77,0.142,-0.554,12.45,5.92,11.02
506987.218000,0.779,0.178,-0.553,-1.86,1.92,-9.22
506987.265000,0.8,0.182,-0.571,0.0,3.75,-4.97
506987.312000,0.734,0.176,-0.523,3.2,5.13,6.35
506987.375000,0.782,0.13,-0.55,-2.53,-5.16,6.68
506987.421000,0.769,0.145,-0.544,0.24,4.64,0.73
506987.484000,0.759,0.122,-0.543,-4.58,-4.58,2.23
506987.531000,0.795,0.093,-0.583,-0.31,-2.62,7.26
506987.578000,0.784,0.097,-0.564,-1.22,-1.1,3.48
506987.625000,0.773,0.125,-0.558,2.04,-1.53,5.71
506987.671000,0.764,0.116,-0.55,5.46,-3.14,14.56
506987.718000,0.779,0.072,-0.565,-2.2,-5.07,0.18
506987.765000,0.794,0.12,-0.58,-6.01,-6.1,-9.89
506987.812000,0.826,0.103,-0.61,0.98,-3.72,6.47
506987.875000,0.808,0.074,-0.608,5.43,-1.43,12.51
506987.921000,0.796,0.085,-0.612,5.19,1.31,5.04
506987.968000,0.754,0.1,-0.559,4.36,4.85,2.99
506988.015000,0.755,0.117,-0.563,-0.4,-1.89,1.25
506988.062000,0.767,0.096,-0.575,-2.08,-3.63,3.51
506988.109000,0.776,0.078,-0.587,0.15,-1.98,1.92
506988.156000,0.781,0.082,-0.589,1.1,-2.87,5.16
506988.203000,0.791,0.064,-0.597,-1.28,-2.26,2.08
506988.250000,0.788,0.065,-0.595,-1.62,-0.76,-0.27
506988.296000,0.782,0.071,-0.592,-0.64,-1.77,1.1
506988.343000,0.791,0.072,-0.601,0.52,-0.09,0.06
506988.390000,0.777,0.087,-0.594,-0.7,0.95,-2.44
506988.437000,0.783,0.104,-0.6,-0.79,0.27,-1.07
506988.484000,0.778,0.099,-0.59,-1.22,0.46,1.59
506988.531000,0.781,0.087,-0.595,-2.56,-0.34,0.37
506988.578000,0.774,0.079,-0.586,-1.43,-0.55,1.22
506988.625000,0.776,0.07,-0.589,-1.28,0.24,1.28
506988.671000,0.76,0.059,-0.585,0.67,0.09,2.04
506988.718000,0.766,0.067,-0.594,-0.15,-0.79,-2.53
506988.765000,0.762,0.094,-0.592,0.0,-0.24,-3.27
506988.812000,0.772,0.104,-0.588,0.55,-1.28,-0.58
506988.859000,0.787,0.106,-0.593,-1.25,-3.2,-1.07
506988.906000,0.793,0.1,-0.604,-1.95,-1.22,-0.58
506988.953000,0.785,0.088,-0.612,-1.1,-1.22,0.52
506989.000000,0.783,0.089,-0.608,-1.56,0.46,-1.31
506989.046000,0.777,0.085,-0.6,0.21,1.8,0.64
506989.093000,0.767,0.097,-0.6,-0.52,1.5,-1.22
506989.140000,0.763,0.095,-0.593,-0.18,1.59,0.12
506989.187000,0.759,0.092,-0.583,-0.31,0.27,-0.34
506989.234000,0.754,0.102,-0.599,-0.92,-0.06,-0.31
506989.281000,0.756,0.082,-0.582,0.43,-0.58,2.2
506989.328000,0.772,0.095,-0.605,1.04,0.34,-1.01
506989.375000,0.796,0.072,-0.611,5.31,2.38,0.98
506989.421000,0.872,0.0,-0.671,35.0,15.32,18.46
506989.468000,0.97,-0.211,-0.931,136.42,21.18,119.63
506989.515000,0.782,-0.446,-1.036,198.95,97.96,95.46
506989.562000,0.596,-0.224,-0.863,134.28,109.9,-50.72
506989.609000,0.593,-0.012,-0.801,101.54,111.88,-46.6
506989.656000,0.636,-0.093,-0.519,99.49,104.07,-13.98
506989.703000,0.696,-0.222,-0.305,95.34,84.63,-2.66
506989.750000,0.749,-0.174,-0.209,87.65,79.74,-40.41
506989.796000,0.836,-0.011,0.042,50.08,95.07,-50.81
506989.843000,0.854,-0.024,0.24,30.92,80.6,-33.02
506989.890000,0.928,0.047,0.339,6.68,65.07,-14.98
506989.937000,0.865,-0.031,0.505,-13.98,46.36,33.23
506989.984000,0.967,-0.157,0.394,-35.13,17.43,68.15
506990.031000,0.874,-0.299,0.428,-85.51,40.44,39.25
506990.078000,0.772,-0.448,0.613,-82.19,28.2,51.45
506990.125000,0.933,-0.266,0.393,-86.61,4.43,2.62
506990.171000,0.872,-0.342,0.529,-64.76,3.63,25.88
506990.218000,0.936,-0.504,0.482,-34.58,-12.88,49.44
506990.265000,1.013,-0.502,0.36,-30.98,-13.37,-4.67
506990.312000,0.987,-0.407,0.261,-23.53,-3.81,-39.67
506990.359000,0.985,-0.408,0.187,-12.12,5.98,-26.49
506990.406000,0.908,-0.388,0.15,4.3,16.79,-14.89
506990.468000,0.808,-0.356,0.221,3.23,12.57,-4.55
506990.515000,0.787,-0.351,0.207,8.91,-2.59,8.55
506990.578000,0.892,-0.339,0.183,0.76,-8.45,2.32
506990.625000,0.936,-0.359,0.178,-2.38,-6.07,5.52
506990.671000,0.922,-0.371,0.217,7.11,2.44,13.58
506990.718000,0.884,-0.39,0.25,9.03,-0.12,13.89
506990.781000,0.884,-0.401,0.217,13.82,-4.88,5.49
506990.828000,0.913,-0.412,0.18,11.47,-4.94,-3.39
506990.875000,0.907,-0.395,0.168,14.04,0.85,-4.24
506990.921000,0.887,-0.373,0.186,12.79,1.01,0.24
506990.968000,0.888,-0.389,0.183,13.12,-0.24,3.36
506991.015000,0.877,-0.372,0.193,10.07,-5.37,1.77
506991.078000,0.893,-0.37,0.165,5.8,-7.23,-0.76
506991.125000,0.906,-0.368,0.17,5.1,-6.59,0.27
506991.171000,0.926,-0.388,0.153,0.92,-2.41,-1.8
506991.218000,0.922,-0.377,0.157,-0.98,3.6,-1.43
506991.265000,0.887,-0.393,0.18,-1.34,5.62,2.47
506991.312000,0.877,-0.38,0.197,-3.78,2.84,1.07
506991.359000,0.883,-0.381,0.202,-4.64,-1.86,1.83
506991.406000,0.896,-0.391,0.186,-4.15,-1.83,0.7
506991.453000,0.905,-0.384,0.189,-3.78,-1.01,-2.47
506991.500000,0.908,-0.384,0.175,-4.06,1.43,-3.66
506991.546000,0.9,-0.382,0.171,-4.49,4.3,-4.33
506991.593000,0.872,-0.349,0.208,-5.28,3.75,-2.93
506991.640000,0.888,-0.365,0.19,-7.08,0.61,0.61
506991.687000,0.894,-0.385,0.197,-7.35,0.79,-0.4
506991.734000,0.901,-0.391,0.193,-5.13,0.27,-1.83
506991.781000,0.884,-0.378,0.214,-2.99,-0.06,-0.92
506991.843000,0.869,-0.396,0.247,1.37,-3.05,2.72
506991.890000,0.878,-0.445,0.252,11.38,-5.71,4.73
506991.937000,0.855,-0.428,0.285,25.48,-10.71,6.26
506991.984000,0.84,-0.361,0.316,30.24,-20.69,8.45
506992.031000,0.816,-0.348,0.384,19.01,-40.86,16.33
506992.078000,0.939,-0.523,0.374,49.87,-53.29,23.19
506992.125000,1.178,-0.368,0.367,62.62,-35.52,-46.39
506992.171000,1.158,0.007,0.694,58.14,20.02,-108.95
506992.218000,1.059,-0.021,0.746,38.03,15.87,-54.72
506992.265000,1.06,-0.046,0.641,2.87,-11.51,-43.4
506992.312000,0.964,-0.023,0.366,-54.99,-45.56,-57.5
506992.359000,0.771,0.032,0.254,-84.6,-71.69,-43.79
506992.406000,0.555,-0.027,-0.229,-107.52,-138.83,-31.92
506992.453000,0.238,0.001,-0.554,-105.84,-194.07,-20.29
506992.500000,0.101,0.074,-1.316,-138.77,-251.81,-14.65
506992.546000,0.578,0.449,-1.603,-207.5,-179.24,-97.51
506992.593000,1.229,-0.324,-1.065,-77.82,-90.82,97.96
506992.640000,1.057,-0.339,-1.037,35.83,43.03,45.29
506992.687000,0.412,0.471,-0.418,-10.38,28.5,-62.81
506992.734000,0.777,0.204,-0.629,-11.14,-25.33,9.7
506992.781000,0.821,0.118,-0.628,5.89,3.72,-2.56
506992.828000,0.704,0.234,-0.508,4.61,3.88,-0.79
506992.875000,0.787,0.148,-0.566,-4.7,-5.86,0.73
506992.921000,0.787,0.148,-0.595,2.11,0.43,1.92
506992.968000,0.742,0.129,-0.55,3.69,-1.22,7.69
506993.015000,0.774,0.096,-0.577,3.33,-1.71,6.62
506993.062000,0.786,0.136,-0.595,-2.69,2.62,-13.95
506993.109000,0.755,0.191,-0.544,4.21,3.42,-0.92
506993.156000,0.792,0.15,-0.574,-0.09,-2.78,4.85
506993.203000,0.809,0.133,-0.598,0.64,0.52,1.46
506993.250000,0.781,0.15,-0.589,-1.98,3.3,-4.06
506993.296000,0.773,0.153,-0.581,0.79,1.43,1.98
506993.359000,0.762,0.162,-0.553,1.59,0.46,1.86
506993.406000,0.758,0.157,-0.583,-1.83,-4.46,2.2
506993.453000,0.764,0.154,-0.579,-1.07,-0.49,1.74
506993.500000,0.776,0.147,-0.582,-1.31,-0.49,1.28
506993.546000,0.78,0.148,-0.597,-0.73,0.85,2.11
506993.593000,0.777,0.142,-0.574,2.08,0.89,2.35
506993.640000,0.75,0.143,-0.566,3.02,0.46,5.19
506993.687000,0.787,0.134,-0.582,3.14,-0.85,4.85
506993.734000,0.778,0.153,-0.582,0.43,1.37,-0.03
506993.781000,0.771,0.154,-0.573,-2.96,0.89,0.76
506993.828000,0.778,0.136,-0.57,-2.59,-0.37,2.41
506993.875000,0.771,0.119,-0.585,-3.54,-0.55,2.9
506993.921000,0.775,0.118,-0.588,-1.19,-1.28,1.74
506993.968000,0.756,0.112,-0.565,1.74,-0.55,5.49
506994.015000,0.791,0.119,-0.596,-1.01,-3.17,1.77
506994.062000,0.781,0.126,-0.586,0.18,0.61,0.06
506994.109000,0.789,0.141,-0.594,-1.46,0.34,-1.4
506994.156000,0.782,0.148,-0.592,-0.76,2.38,1.22
506994.203000,0.779,0.127,-0.592,-1.34,1.31,1.19
506994.250000,0.786,0.135,-0.591,-1.19,1.92,1.07
506994.296000,0.773,0.109,-0.576,-1.74,2.75,0.18
506994.359000,0.752,0.124,-0.568,0.31,1.8,2.56
506994.406000,0.773,0.109,-0.576,-0.64,0.85,-2.93
506994.453000,0.776,0.143,-0.575,1.31,0.76,-1.56
506994.500000,0.771,0.135,-0.571,1.5,-0.43,0.98
506994.546000,0.784,0.142,-0.579,-0.24,-0.24,-2.44
506994.593000,0.781,0.135,-0.607,-0.46,-0.18,-1.8
506994.640000,0.781,0.137,-0.586,1.31,0.37,-0.79
506994.687000,0.779,0.148,-0.575,-0.03,0.37,-3.14
506994.734000,0.788,0.144,-0.581,0.67,0.49,0.67
506994.781000,0.774,0.148,-0.572,0.06,0.64,-1.65
506994.828000,0.778,0.142,-0.578,1.37,-0.52,2.75
506994.875000,0.777,0.138,-0.582,-0.92,1.1,-1.25
506994.921000,0.771,0.138,-0.573,0.15,1.19,1.07
506994.968000,0.777,0.148,-0.578,0.24,2.29,-0.37
506995.015000,0.796,0.134,-0.603,6.26,2.14,6.47
506995.062000,0.87,0.003,-0.671,29.21,14.5,18.65
506995.109000,0.889,-0.099,-0.816,73.21,52.25,15.59
506995.156000,0.795,-0.017,-0.956,119.97,86.12,13.86
506995.203000,0.666,0.001,-1.004,159.49,124.27,36.68
506995.250000,0.546,-0.01,-0.834,144.51,117.95,10.44
506995.296000,0.675,-0.131,-0.488,160.77,88.96,5.86
506995.343000,0.771,-0.052,-0.56,124.24,80.78,-41.72
506995.390000,0.796,-0.11,-0.2,83.9,109.29,-30.03
506995.437000,0.886,0.018,-0.165,47.76,93.08,-33.51
506995.484000,0.849,-0.046,0.167,25.88,114.9,-18.28
506995.546000,0.723,-0.033,0.385,-34.85,92.99,-4.24
506995.593000,0.737,-0.132,0.687,-25.06,70.19,31.8
506995.640000,0.709,-0.061,0.739,-82.52,15.69,3.63
506995.687000,0.846,-0.012,0.622,-123.26,-39.7,3.42
506995.734000,0.835,-0.132,0.517,-107.27,-43.49,75.5
506995.781000,1.025,-0.419,0.388,-72.97,-55.97,122.71
506995.828000,1.199,-0.45,0.246,-95.31,-17.33,39.19
506995.875000,1.138,-0.516,0.308,-52.92,6.99,26.4
506995.921000,1.061,-0.545,0.186,-15.84,13.09,9.55
506995.968000,0.908,-0.405,0.22,-1.65,11.6,-35.68
506996.015000,0.875,-0.378,0.132,3.91,-3.54,-31.83
506996.062000,0.843,-0.341,0.144,4.61,-0.82,-24.96
506996.109000,0.845,-0.365,0.111,4.55,-4.64,-6.44
506996.156000,0.844,-0.36,0.131,6.93,-4.52,5.13
506996.203000,0.888,-0.36,0.122,4.91,-7.17,12.36
506996.250000,0.925,-0.373,0.099,2.72,-2.5,10.99
506996.296000,0.951,-0.385,0.095,4.3,-0.03,10.71
506996.343000,0.944,-0.361,0.095,2.26,3.3,4.64
506996.390000,0.927,-0.357,0.102,2.14,0.64,3.39
506996.437000,0.931,-0.396,0.092,0.64,-2.56,-1.07
506996.484000,0.914,-0.385,0.09,0.4,-1.92,-6.01
506996.531000,0.897,-0.375,0.081,0.58,0.06,-4.15
506996.578000,0.871,-0.339,0.108,-2.59,-1.19,-2.9
506996.625000,0.91,-0.356,0.078,-7.66,-4.46,-1.31
506996.671000,0.918,-0.389,0.082,-5.37,-2.2,1.46
506996.718000,0.916,-0.377,0.107,-5.68,-0.95,-0.15
506996.765000,0.931,-0.376,0.089,-5.86,-0.98,-0.89
506996.812000,0.932,-0.396,0.074,-4.21,2.32,1.07
506996.875000,0.887,-0.352,0.106,-0.98,1.98,1.31
506996.921000,0.894,-0.363,0.084,-2.11,-2.26,1.83
506996.968000,0.926,-0.389,0.064,-1.13,-2.84,1.13
506997.015000,0.935,-0.383,0.068,1.19,-1.53,0.37
506997.078000,0.909,-0.35,0.094,1.13,-0.55,0.82
506997.125000,0.915,-0.377,0.09,1.53,-0.95,1.53
506997.171000,0.914,-0.375,0.087,0.95,-1.04,-1.83
506997.218000,0.907,-0.375,0.074,1.71,-1.04,-1.34
506997.265000,0.9,-0.369,0.073,2.29,-0.7,-1.28
506997.312000,0.895,-0.366,0.072,1.86,-3.08,0.76
506997.359000,0.909,-0.382,0.061,1.04,-2.75,1.5
506997.406000,0.919,-0.374,0.062,0.06,-2.26,1.16
506997.453000,0.925,-0.375,0.056,-0.46,-0.58,2.44
506997.500000,0.913,-0.37,0.067,-1.16,0.06,1.56
506997.546000,0.91,-0.37,0.067,-1.34,-1.37,1.62
506997.593000,0.915,-0.385,0.07,-2.01,-1.16,0.0
506997.640000,0.916,-0.384,0.059,-0.85,-0.12,1.25
506997.687000,0.899,-0.363,0.071,-1.68,0.58,-0.37
506997.734000,0.9,-0.381,0.057,-1.92,-3.05,3.3
506997.781000,0.916,-0.398,0.055,-2.44,-1.34,1.53
506997.828000,0.922,-0.396,0.057,-0.52,0.49,1.22
506997.875000,0.901,-0.368,0.079,0.58,-0.09,0.31
506997.921000,0.906,-0.374,0.068,1.01,-1.19,0.85
506997.968000,0.913,-0.386,0.064,1.28,-0.03,0.58
506998.015000,0.901,-0.372,0.068,0.7,-0.98,1.01
506998.078000,0.913,-0.396,0.048,0.89,-1.16,1.83
506998.125000,0.908,-0.378,0.059,0.89,0.52,0.06
506998.171000,0.92,-0.388,0.039,1.53,-0.03,1.34
506998.218000,0.911,-0.382,0.055,1.28,2.41,0.52
506998.265000,0.901,-0.369,0.057,-1.1,1.95,0.34
506998.312000,0.909,-0.4,0.053,-1.22,-0.4,3.08
506998.359000,0.907,-0.397,0.068,0.03,1.65,0.85
506998.406000,0.897,-0.372,0.067,-1.53,-0.67,1.92
506998.453000,0.911,-0.397,0.061,-2.59,-0.09,2.14
506998.500000,0.906,-0.398,0.057,-1.62,0.06,2.66
506998.546000,0.908,-0.394,0.053,-3.05,-0.98,1.5
506998.593000,0.909,-0.39,0.062,-2.17,0.34,0.55
506998.640000,0.915,-0.397,0.054,-2.93,-0.4,0.73
506998.687000,0.896,-0.385,0.076,-2.9,1.04,0.15
506998.734000,0.898,-0.401,0.069,-1.65,-0.64,1.68
506998.781000,0.905,-0.414,0.06,-1.34,-1.04,1.28
506998.828000,0.905,-0.395,0.073,1.04,1.43,0.0
506998.875000,0.904,-0.4,0.066,0.61,0.46,1.1
506998.921000,0.902,-0.395,0.067,2.59,1.16,0.31
506998.968000,0.898,-0.389,0.073,1.98,-1.22,0.52
506999.015000,0.915,-0.404,0.056,2.5,-0.67,-0.73
506999.062000,0.909,-0.404,0.062,1.92,-1.4,-0.89
506999.109000,0.9,-0.395,0.064,2.01,0.79,-1.5
506999.171000,0.901,-0.419,0.059,2.14,-0.43,0.21
506999.218000,0.894,-0.387,0.06,1.31,-1.04,-0.24
506999.265000,0.895,-0.381,0.06,-0.67,-2.35,1.19
506999.312000,0.916,-0.413,0.035,0.55,-0.34,0.79
506999.359000,0.906,-0.398,0.061,-0.03,-0.34,-0.61
506999.406000,0.91,-0.389,0.048,-1.04,-1.28,1.16
506999.453000,0.909,-0.4,0.048,0.0,1.1,0.89
506999.500000,0.903,-0.395,0.061,-1.01,0.46,-0.15
506999.546000,0.91,-0.405,0.047,-1.01,0.85,-0.15
506999.593000,0.904,-0.396,0.05,-0.31,1.98,-1.07
506999.640000,0.903,-0.39,0.05,-0.67,0.64,0.34
506999.687000,0.898,-0.389,0.063,-1.92,1.86,0.24
506999.734000,0.903,-0.403,0.06,-1.04,1.71,1.25
506999.781000,0.9,-0.394,0.063,-0.55,1.68,0.4
506999.828000,0.904,-0.392,0.059,-0.55,-0.06,0.55
506999.875000,0.913,-0.401,0.051,-0.64,0.12,0.09
506999.921000,0.911,-0.398,0.059,-0.15,1.86,-1.28
506999.968000,0.91,-0.378,0.058,-1.74,1.95,-2.17
507000.015000,0.902,-0.394,0.052,-2.08,2.41,-0.15
507000.062000,0.893,-0.411,0.068,-1.19,2.38,-0.27
507000.109000,0.894,-0.403,0.074,-0.76,0.98,-0.89
507000.156000,0.91,-0.394,0.053,0.52,0.67,0.0
507000.203000,0.921,-0.391,0.057,-2.47,0.95,-1.25
507000.250000,0.916,-0.398,0.05,-1.86,3.2,-0.18
507000.296000,0.918,-0.402,0.05,-2.53,3.51,-1.59
507000.343000,0.897,-0.372,0.059,-3.97,3.54,-2.56
507000.390000,0.875,-0.374,0.081,-4.33,0.18,2.17
507000.437000,0.881,-0.403,0.092,-1.37,-1.68,4.39
507000.484000,0.886,-0.406,0.107,-0.7,-2.32,0.09
507000.531000,0.907,-0.402,0.091,0.4,-3.75,1.5
507000.578000,0.905,-0.415,0.107,6.53,-1.13,4.76
507000.625000,0.873,-0.42,0.183,14.07,-4.24,6.78
507000.671000,0.884,-0.455,0.247,32.04,-7.66,9.67
507000.718000,0.92,-0.477,0.305,46.57,-7.29,5.74
507000.765000,0.971,-0.405,0.409,61.49,-3.14,-11.69
507000.812000,1.001,-0.233,0.445,70.62,5.89,-41.78
507000.859000,0.965,-0.209,0.632,52.34,2.41,-47.61
507000.906000,0.941,-0.192,0.661,68.21,-10.13,-16.24
507000.953000,0.92,-0.233,0.614,36.77,-42.54,-20.08
507001.000000,1.044,-0.328,0.231,-4.43,-57.89,-24.78
507001.046000,0.965,-0.325,0.091,-47.49,-60.06,-64.46
507001.093000,0.777,-0.107,-0.161,-81.88,-80.54,-102.05
507001.140000,0.477,0.146,-0.341,-91.53,-126.83,-74.13
507001.187000,0.162,0.414,-1.079,-133.06,-214.82,-7.75
507001.234000,0.253,0.346,-1.628,-155.16,-233.5,28.87
507001.281000,0.805,-0.414,-1.307,-130.59,-145.24,99.83
507001.328000,1.367,-0.797,-1.104,-11.05,-4.09,-3.42
507001.375000,0.508,0.202,-0.513,22.64,56.52,-51.48
507001.421000,0.6,0.203,-0.458,-10.56,-12.97,-2.59
507001.468000,0.857,-0.028,-0.595,3.02,-13.95,25.39
507001.515000,0.787,-0.047,-0.542,2.93,2.84,-9.43
507001.562000,0.768,0.03,-0.554,-2.11,1.65,-21.15
507001.609000,0.822,0.095,-0.563,-1.5,0.43,-12.42
507001.656000,0.803,0.085,-0.558,2.35,-0.67,3.69
507001.703000,0.812,0.016,-0.544,1.43,-1.25,3.97
507001.750000,0.798,0.037,-0.555,-2.56,2.01,-6.68
507001.796000,0.786,0.06,-0.547,-3.39,0.27,-6.65
507001.843000,0.788,0.058,-0.55,-1.19,-1.19,1.31
507001.890000,0.796,0.036,-0.546,-1.62,-1.53,3.94
507001.937000,0.799,0.049,-0.567,-7.23,-1.37,-7.51
507001.984000,0.819,0.057,-0.573,-5.52,-2.08,-0.58
507002.031000,0.838,0.03,-0.582,-1.74,1.71,3.02
507002.078000,0.827,0.019,-0.563,1.04,6.5,3.88
507002.125000,0.798,0.039,-0.535,0.67,4.85,-0.34
507002.171000,0.78,0.042,-0.532,1.25,1.01,4.12
507002.218000,0.791,0.016,-0.539,0.82,-0.73,4.06
507002.265000,0.798,0.026,-0.552,0.37,-1.07,0.34
507002.312000,0.804,0.033,-0.558,1.01,-0.37,-0.15
507002.359000,0.807,0.046,-0.556,0.61,-1.74,2.35
507002.406000,0.831,0.032,-0.568,-0.31,-0.12,0.76
507002.468000,0.815,0.05,-0.56,-0.18,1.19,0.64
507002.515000,0.796,0.053,-0.556,-0.55,1.71,0.34
507002.562000,0.808,0.044,-0.547,-2.69,0.73,-1.77
507002.609000,0.8,0.061,-0.544,-2.53,1.13,-0.31
507002.656000,0.825,0.044,-0.565,-4.3,-0.76,0.18
507002.703000,0.814,0.044,-0.548,-2.47,1.19,2.11
507002.750000,0.797,0.034,-0.536,-4.97,1.19,0.43
507002.796000,0.798,0.019,-0.546,-4.06,0.06,1.53
507002.843000,0.805,0.015,-0.548,-1.37,-0.7,3.36
507002.890000,0.795,0.026,-0.545,-3.27,-0.52,-0.92
507002.937000,0.797,0.042,-0.545,0.49,-0.95,0.98
507002.984000,0.812,0.058,-0.556,-2.26,-1.56,-3.54
507003.031000,0.816,0.079,-0.549,-2.17,-1.43,-0.09
507003.078000,0.821,0.048,-0.553,-4.64,-1.59,-0.52
507003.125000,0.802,0.025,-0.557,-7.66,-0.49,-7.93
507003.171000,0.783,0.037,-0.532,-4.79,-0.67,-10.53
507003.218000,0.802,0.069,-0.557,0.03,-1.43,0.43
507003.281000,0.82,0.039,-0.572,0.55,-1.74,-1.56
507003.328000,0.808,0.054,-0.577,0.98,0.46,-3.51
507003.375000,0.818,0.075,-0.576,0.03,-0.12,-9.09
507003.421000,0.808,0.097,-0.552,0.76,1.62,-7.48
507003.468000,0.8,0.111,-0.558,1.07,1.8,-2.69
507003.515000,0.801,0.093,-0.562,-1.34,0.58,-3.78
507003.562000,0.808,0.099,-0.574,-2.44,-0.18,-2.96
507003.609000,0.804,0.084,-0.569,-1.43,1.28,-0.7
507003.656000,0.791,0.076,-0.551,0.43,3.3,-0.61
507003.703000,0.774,0.092,-0.542,0.7,1.43,-0.61
507003.750000,0.785,0.094,-0.541,0.24,-0.24,0.7
507003.796000,0.785,0.08,-0.552,0.67,-0.49,1.13
507003.843000,0.785,0.072,-0.546,-0.4,-1.86,-2.08
507003.890000,0.802,0.084,-0.557,-1.34,-1.77,-5.37
507003.937000,0.808,0.104,-0.563,-0.06,-1.16,-2.2
507003.984000,0.816,0.104,-0.564,0.15,-0.82,-1.19
507004.031000,0.84,0.065,-0.591,2.26,0.21,0.06
507004.078000,1.001,-0.086,-0.735,28.02,18.8,2.26
507004.125000,1.012,-0.112,-0.897,81.51,63.6,7.42
507004.171000,0.738,-0.203,-1.152,147.74,143.04,36.77
507004.218000,0.551,-0.021,-1.442,129.43,186.25,-37.02
507004.265000,0.442,0.113,-0.883,92.75,207.77,-38.0
507004.312000,0.518,0.281,-0.34,94.42,171.7,-6.99
507004.359000,0.648,0.137,0.15,79.65,144.69,21.39
507004.406000,0.798,0.103,0.196,37.93,88.66,-7.87
507004.453000,0.823,0.005,0.387,22.1,77.73,2.5
507004.500000,0.744,-0.002,0.61,21.24,55.76,15.56
507004.546000,0.783,0.093,0.682,-7.08,4.52,15.69
507004.593000,0.646,0.246,0.787,-48.98,-29.05,30.98
507004.640000,0.744,0.16,0.613,-82.86,-84.41,66.87
507004.687000,1.217,-0.437,0.157,-100.34,-93.75,84.54
507004.734000,1.353,-0.563,0.18,-72.79,-35.92,55.82
507004.796000,1.137,-0.323,0.255,-42.63,5.92,16.82
507004.859000,0.977,-0.254,0.186,-28.5,19.9,-12.7
507004.906000,0.959,-0.334,0.121,-23.47,15.93,-20.87
507004.953000,0.881,-0.326,0.136,-11.11,15.78,-17.09
507005.000000,0.837,-0.282,0.158,-5.04,4.18,-4.03
507005.046000,0.914,-0.326,0.094,-3.33,-4.97,4.91
507005.093000,0.969,-0.317,0.077,0.06,-2.69,4.79
507005.140000,0.956,-0.276,0.067,4.15,2.32,7.39
507005.187000,0.934,-0.248,0.115,3.57,4.58,4.15
507005.234000,0.941,-0.284,0.08,1.25,-0.61,0.15
507005.281000,0.948,-0.308,0.094,3.11,-0.73,-1.56
507005.328000,0.932,-0.315,0.081,8.76,-2.47,0.73
507005.375000,0.912,-0.272,0.097,10.59,-3.48,1.68
507005.421000,0.917,-0.283,0.155,12.12,-0.7,9.77
507005.468000,0.9,-0.31,0.22,11.9,8.03,13.03
507005.515000,0.946,-0.396,0.3,35.92,22.22,19.96
507005.562000,1.008,-0.354,0.391,51.67,36.26,5.31
507005.609000,1.036,-0.286,0.451,48.86,42.57,-25.88
507005.656000,0.933,-0.177,0.555,59.76,57.1,-38.51
507005.718000,0.774,-0.003,0.746,47.7,31.89,-34.82
507005.765000,0.83,0.108,0.773,4.49,7.29,-41.2
507005.812000,0.935,-0.068,0.604,5.52,-35.22,24.72
507005.859000,1.068,-0.35,0.26,-25.3,-49.99,21.36
507005.906000,1.112,-0.523,0.036,-32.26,-66.71,8.82
507005.953000,0.923,-0.061,0.078,-63.26,-67.87,-66.38
507006.000000,0.731,0.147,-0.062,-80.02,-99.43,-73.82
507006.046000,0.199,0.283,-0.385,-87.31,-170.57,25.15
507006.093000,0.211,-0.138,-1.358,-128.18,-260.08,81.09
507006.140000,1.172,-0.695,-1.215,-150.98,-183.23,-25.82
507006.187000,1.438,-0.775,-1.004,-33.6,-7.78,-56.98
507006.234000,0.448,0.054,-0.423,28.32,48.65,-37.02
507006.281000,0.466,0.279,-0.219,-3.42,-10.99,-31.31
507006.328000,0.956,-0.023,-0.554,-8.88,-42.66,18.04
507006.375000,1.026,-0.123,-0.6,-6.29,-1.04,-29.97
507006.421000,0.823,0.119,-0.522,-3.97,10.83,-34.7
507006.468000,0.898,0.079,-0.548,-7.97,-4.09,-13.0
507006.515000,0.898,0.057,-0.529,-2.26,5.62,-0.06
507006.562000,0.847,0.042,-0.491,-7.23,7.78,-6.65
507006.609000,0.812,0.064,-0.476,-6.16,5.55,-4.27
507006.656000,0.822,0.024,-0.477,-10.35,2.47,-5.8
507006.703000,0.822,0.042,-0.472,-2.72,1.65,4.73
507006.750000,0.832,0.007,-0.486,-3.72,0.24,0.95
507006.796000,0.832,0.048,-0.475,-2.93,-0.24,-1.31
507006.843000,0.844,0.053,-0.482,-1.28,-0.09,2.35
507006.890000,0.837,0.058,-0.471,-3.81,0.09,1.13
507006.937000,0.847,0.036,-0.48,-3.66,-1.89,0.4
507006.984000,0.837,0.038,-0.47,-1.71,-0.89,1.95
507007.031000,0.815,0.04,-0.462,0.12,-3.54,6.65
507007.078000,0.839,0.03,-0.478,0.37,-5.86,3.45
507007.125000,0.862,0.028,-0.504,-0.37,-3.72,1.89
507007.171000,0.83,0.039,-0.485,1.25,-2.9,1.92
507007.218000,0.839,0.042,-0.488,0.37,-5.07,3.69
507007.265000,0.859,0.018,-0.512,-1.92,-5.8,2.38
507007.312000,0.858,0.025,-0.522,-0.43,-1.68,0.7
507007.359000,0.849,0.023,-0.519,0.85,-0.92,2.47
507007.406000,0.844,0.021,-0.511,0.92,-0.4,2.32
507007.453000,0.839,0.026,-0.511,0.79,0.09,-0.98
507007.500000,0.837,0.042,-0.507,0.21,0.03,-0.46
507007.546000,0.837,0.037,-0.498,-1.1,-0.09,-1.43
507007.609000,0.827,0.049,-0.51,-2.53,-1.46,-1.74
507007.656000,0.834,0.039,-0.51,-1.46,0.09,0.82
507007.703000,0.834,0.033,-0.505,-2.38,-1.43,-0.4
507007.750000,0.836,0.035,-0.521,-1.4,-0.55,1.1
507007.796000,0.837,0.033,-0.52,-1.19,-0.61,1.37
507007.843000,0.843,0.031,-0.522,-1.46,-0.12,0.27
507007.890000,0.848,0.041,-0.53,-0.89,0.34,1.1
507007.937000,0.839,0.031,-0.511,-1.16,0.37,0.27
507007.984000,0.845,0.036,-0.508,-1.25,1.62,0.34
507008.031000,0.824,0.04,-0.501,-0.98,2.72,0.98
507008.078000,0.831,0.039,-0.5,-1.83,0.37,0.76
507008.125000,0.834,0.028,-0.501,-2.08,0.18,-0.79
507008.171000,0.83,0.033,-0.503,-2.56,0.06,-2.04
507008.218000,0.821,0.035,-0.497,-0.21,0.09,0.79
507008.265000,0.838,0.026,-0.513,-1.5,-1.74,-1.13
507008.312000,0.838,0.033,-0.515,0.18,-0.61,0.4
507008.359000,0.844,0.028,-0.513,-0.18,-0.46,-2.2
507008.421000,0.839,0.048,-0.518,1.37,0.85,0.12
507008.484000,0.839,0.041,-0.513,-0.12,-0.37,-2.17
507008.531000,0.834,0.047,-0.507,-0.06,0.27,-0.73
507008.578000,0.838,0.044,-0.52,1.16,0.58,0.18
507008.625000,0.831,0.04,-0.51,1.46,0.21,2.14
507008.671000,0.852,0.031,-0.523,0.12,0.61,-0.18
507008.718000,0.839,0.034,-0.51,0.79,1.62,-1.13
507008.765000,0.832,0.042,-0.501,1.19,1.56,0.67
507008.828000,0.83,0.034,-0.499,-0.12,0.98,0.21
507008.875000,0.826,0.039,-0.501,-0.24,-0.31,-1.4
507008.921000,0.834,0.042,-0.509,-0.7,-0.46,-1.46
507008.968000,0.824,0.038,-0.502,-1.62,-0.15,-2.01
507009.015000,0.839,0.05,-0.519,-0.7,-0.82,-1.5
507009.062000,0.835,0.05,-0.521,-1.65,-0.03,-1.5
507009.109000,0.855,0.034,-0.522,0.73,1.77,-0.06
507009.156000,0.879,-0.019,-0.57,16.94,13.67,7.14
507009.203000,0.854,-0.154,-0.7,61.1,49.44,22.52
507009.250000,0.853,-0.21,-1.018,118.29,106.11,20.23
507009.296000,0.659,-0.102,-1.104,115.85,162.14,-59.45
507009.343000,0.529,0.028,-0.816,93.2,165.14,-56.61
507009.390000,0.705,0.041,-0.547,92.9,133.09,-30.88
507009.437000,0.758,0.04,-0.414,91.74,103.79,-18.59
507009.484000,0.802,0.144,-0.261,84.72,92.04,-22.49
507009.531000,0.756,0.239,0.313,24.29,102.15,-28.14
507009.578000,0.745,0.342,0.768,13.28,82.77,11.2
507009.625000,0.727,0.466,1.018,-75.53,-23.8,68.48
507009.671000,0.68,0.152,0.846,-137.33,-106.6,133.7
507009.718000,1.089,-0.434,0.328,-141.54,-117.95,103.58
507009.765000,1.375,-0.547,0.223,-104.59,-79.84,58.14
507009.812000,1.461,-0.403,0.164,-50.45,-24.99,32.65
507009.859000,1.12,-0.259,0.148,-25.73,36.32,-8.21
507009.906000,0.89,-0.299,0.131,-7.26,31.53,-24.29
507009.953000,0.782,-0.301,0.14,10.44,5.65,-13.95
507010.000000,0.892,-0.329,0.046,19.56,-9.77,-11.26
507010.046000,0.916,-0.25,0.133,35.58,-12.42,11.05
507010.093000,0.981,-0.352,0.235,57.59,-2.93,28.47
507010.140000,1.154,-0.381,0.079,67.93,-0.46,-29.27
507010.187000,1.007,-0.179,-0.051,75.69,21.94,-30.85
507010.234000,0.906,-0.0,-0.02,58.38,11.75,-32.35
507010.281000,0.942,0.121,0.281,31.16,7.42,-33.48
507010.328000,1.052,-0.038,0.686,51.67,20.69,9.74
507010.375000,1.019,-0.084,0.94,59.72,36.32,-4.3
507010.421000,1.041,-0.071,0.991,50.63,26.46,-40.93
507010.468000,1.064,-0.04,0.768,6.16,-12.09,-59.24
507010.515000,1.001,0.196,0.438,-46.69,-49.81,-84.9
507010.562000,0.834,0.154,-0.093,-87.47,-108.74,-20.6
507010.609000,0.268,0.33,-0.611,-153.42,-179.45,-52.52
507010.671000,0.141,0.23,-2.137,-187.32,-297.37,91.8
507010.718000,0.81,-0.577,-1.427,-162.97,-170.11,83.22
507010.765000,1.203,-0.534,-0.978,-2.32,22.64,-3.88
507010.812000,0.299,0.393,-0.351,-3.42,62.23,-61.4
507010.859000,0.481,0.401,-0.228,-34.42,-17.46,-15.44
507010.906000,0.982,-0.003,-0.697,-25.15,-43.73,22.95
507010.953000,0.945,-0.04,-0.613,5.19,11.08,9.86
507011.000000,0.753,0.088,-0.512,0.92,13.95,-9.28
507011.046000,0.808,0.109,-0.497,-2.41,2.32,-5.4
507011.093000,0.844,0.08,-0.503,7.6,5.19,11.35
507011.140000,0.829,0.035,-0.469,0.18,6.35,-1.34
507011.187000,0.82,0.071,-0.439,-5.8,4.39,-14.28
507011.234000,0.819,0.097,-0.46,-7.05,-0.12,-10.32
507011.281000,0.798,0.095,-0.471,-1.5,-2.08,1.01
507011.328000,0.847,0.073,-0.479,-2.41,-2.99,-3.6
507011.375000,0.818,0.111,-0.481,-0.85,-0.34,-5.62
507011.421000,0.796,0.159,-0.505,-1.25,-5.1,-6.1
507011.468000,0.818,0.185,-0.51,-1.56,-9.49,1.56
507011.515000,0.867,0.139,-0.535,-5.55,-10.62,4.06
507011.562000,0.936,0.119,-0.571,-11.84,-4.27,-5.25
507011.609000,0.912,0.133,-0.566,-4.0,4.36,3.94
507011.656000,0.845,0.125,-0.531,-3.57,9.67,4.21
507011.703000,0.8,0.12,-0.501,-3.66,6.68,4.43
507011.750000,0.792,0.092,-0.489,-2.38,3.85,5.49
507011.796000,0.814,0.082,-0.495,0.09,3.48,4.73
507011.843000,0.818,0.118,-0.479,0.15,2.81,0.98
507011.890000,0.823,0.117,-0.474,-1.1,1.28,1.37
507011.937000,0.835,0.128,-0.475,-2.44,0.12,-0.31
507011.984000,0.833,0.095,-0.486,-3.08,-1.89,2.72
507012.031000,0.845,0.087,-0.51,-1.68,-0.95,-0.7
507012.078000,0.841,0.092,-0.515,-0.64,-0.43,-0.64
507012.125000,0.832,0.102,-0.493,3.88,1.89,0.92
507012.171000,0.834,0.118,-0.478,3.02,1.43,-2.01
507012.218000,0.827,0.143,-0.478,2.5,0.06,-0.4
507012.265000,0.835,0.126,-0.492,1.07,-1.98,-0.06
507012.312000,0.84,0.121,-0.501,0.09,-2.72,-1.56
507012.359000,0.839,0.116,-0.505,-0.46,0.82,-0.79
507012.406000,0.829,0.106,-0.51,-1.68,0.0,-2.47
507012.453000,0.838,0.113,-0.515,-0.46,-0.24,-2.04
507012.500000,0.842,0.118,-0.505,1.4,1.68,-1.28
507012.546000,0.819,0.13,-0.493,0.52,1.65,-2.59
507012.593000,0.826,0.138,-0.497,0.37,0.18,-2.75
507012.640000,0.826,0.12,-0.498,1.04,-0.34,0.92
507012.687000,0.834,0.122,-0.499,1.46,-1.1,-1.98
507012.734000,0.825,0.13,-0.496,0.64,-1.4,-0.27
507012.781000,0.83,0.135,-0.502,1.01,0.31,-1.46
507012.828000,0.832,0.15,-0.507,0.03,-1.16,-1.95
507012.875000,0.849,0.149,-0.525,0.55,-1.25,0.52
507012.921000,0.842,0.136,-0.516,-0.09,1.01,-0.06
507012.968000,0.84,0.135,-0.514,0.79,1.22,0.12
507013.015000,0.824,0.14,-0.504,-0.58,2.41,0.12
507013.062000,0.82,0.131,-0.491,0.15,1.59,0.52
507013.109000,0.798,0.143,-0.475,-0.34,2.26,0.12
507013.156000,0.784,0.145,-0.465,0.09,-1.4,0.95
507013.203000,0.792,0.148,-0.486,-0.58,-4.7,2.75
507013.250000,0.823,0.136,-0.5,-1.34,-6.53,2.96
507013.296000,0.843,0.129,-0.527,-1.34,-4.79,2.44
507013.343000,0.875,0.11,-0.571,11.9,5.04,11.54
507013.390000,0.942,0.074,-0.609,33.27,23.07,13.89
507013.437000,0.833,-0.039,-0.806,88.78,69.0,29.42
507013.484000,0.619,-0.101,-0.972,158.64,115.91,30.27
507013.531000,0.61,0.017,-0.911,146.55,127.66,-9.92
507013.578000,0.596,0.075,-0.731,99.28,114.14,-21.09
507013.625000,0.634,-0.039,-0.314,123.78,80.6,26.15
507013.671000,0.854,-0.039,-0.23,83.32,67.14,-15.5
507013.718000,0.971,-0.027,0.012,13.12,77.52,-14.44
507013.765000,1.047,-0.091,0.274,5.89,70.01,8.85
507013.828000,1.004,-0.02,0.318,-64.94,51.42,-10.07
507013.875000,0.8,-0.052,0.516,-71.66,31.53,52.77
507013.921000,0.659,-0.09,0.608,-74.71,-11.96,82.61
507013.968000,0.601,-0.112,0.574,-86.4,-44.53,86.28
507014.015000,0.896,-0.314,0.241,-106.05,-103.12,76.02
507014.062000,1.383,-0.663,-0.239,-107.49,-79.81,26.0
507014.109000,1.425,-0.699,-0.116,-39.61,-6.96,27.13
507014.171000,1.102,-0.429,0.065,37.87,26.09,44.28
507014.218000,1.002,-0.268,-0.012,14.5,14.5,-9.43
507014.265000,0.928,-0.224,-0.04,-7.42,15.9,-34.3
507014.312000,0.889,-0.287,-0.016,-5.62,15.63,-12.27
507014.359000,0.863,-0.357,0.015,-5.68,14.95,-5.62
507014.406000,0.835,-0.404,0.045,-5.1,10.99,-0.55
507014.453000,0.847,-0.427,0.049,-2.62,1.71,2.81
507014.500000,0.895,-0.412,0.03,9.25,-0.64,5.92
507014.546000,0.95,-0.373,-0.024,11.2,-1.04,2.96
507014.593000,0.964,-0.337,-0.04,16.72,5.34,1.43
507014.640000,0.952,-0.319,-0.022,14.5,5.68,-2.23
507014.687000,0.951,-0.323,-0.062,7.23,1.8,-8.33
507014.734000,0.915,-0.321,-0.039,8.0,2.2,-6.26
507014.781000,0.907,-0.337,0.002,4.85,0.49,-3.88
507014.828000,0.922,-0.35,-0.003,5.28,0.98,-4.55
507014.875000,0.912,-0.327,0.007,2.81,5.8,-5.74
507014.921000,0.908,-0.335,0.014,4.91,7.81,3.94
507014.968000,0.909,-0.334,0.012,2.17,5.89,2.9
507015.015000,0.924,-0.321,-0.006,0.21,3.63,2.23
507015.062000,0.933,-0.317,-0.009,-2.81,1.89,1.4
507015.109000,0.93,-0.318,0.019,-4.33,1.89,3.54
507015.156000,0.936,-0.356,0.026,-6.01,2.99,2.47
507015.203000,0.912,-0.372,0.069,-1.28,4.27,4.39
507015.250000,0.877,-0.402,0.134,7.51,5.37,7.66
507015.296000,0.813,-0.399,0.253,19.68,2.5,7.42
507015.343000,0.711,-0.553,0.699,108.16,-12.39,103.89
507015.390000,0.884,-0.579,0.523,172.7,-10.07,165.11
507015.437000,0.972,-0.267,0.634,54.93,-5.62,-30.82
507015.484000,1.105,-0.26,0.681,66.99,-10.28,3.97
507015.531000,1.24,-0.445,0.431,26.76,-43.28,4.94
507015.578000,1.1,-0.405,0.175,-25.09,-32.5,-77.46
507015.625000,1.033,-0.413,0.033,-41.38,-56.92,-70.59
507015.671000,0.964,-0.365,-0.209,-81.21,-63.97,-105.32
507015.718000,0.781,-0.204,-0.284,-92.14,-78.8,-99.03
507015.765000,0.478,0.039,-0.345,-108.34,-111.48,-72.36
507015.812000,0.226,0.108,-0.872,-159.0,-189.49,-42.7
507015.859000,0.339,0.143,-1.359,-185.92,-200.66,-42.63
507015.906000,1.314,-0.581,-1.092,-126.65,-114.14,-0.64
507015.953000,1.007,-0.378,-0.904,71.44,65.07,35.28
507016.000000,0.305,0.374,-0.333,2.72,25.91,-61.28
507016.046000,0.806,0.11,-0.578,0.24,-30.92,14.77
507016.093000,0.899,0.067,-0.565,15.78,4.88,-1.34
507016.140000,0.753,0.212,-0.521,3.17,5.28,-18.37
507016.187000,0.818,0.156,-0.548,-2.44,-2.81,-6.32
507016.234000,0.834,0.134,-0.565,-1.95,0.4,2.53
507016.281000,0.807,0.105,-0.522,-1.16,3.97,5.07
507016.328000,0.82,0.11,-0.554,-6.23,0.0,-5.49
507016.375000,0.832,0.094,-0.539,-5.25,2.01,-1.31
507016.421000,0.823,0.099,-0.532,-4.85,1.74,0.82
507016.468000,0.829,0.066,-0.536,-4.24,1.5,4.03
507016.515000,0.81,0.076,-0.524,-7.84,3.88,-6.35
507016.562000,0.794,0.072,-0.509,-3.02,1.56,3.69
507016.609000,0.806,0.066,-0.517,-2.5,0.18,1.01
507016.656000,0.842,0.073,-0.542,-3.78,0.4,-3.14
507016.703000,0.811,0.115,-0.519,-1.98,3.57,-0.89
507016.750000,0.833,0.115,-0.532,0.18,0.18,6.23
507016.796000,0.833,0.082,-0.525,-1.56,0.12,3.97
507016.843000,0.809,0.093,-0.508,0.49,3.57,3.08
507016.890000,0.795,0.091,-0.487,-0.37,0.73,4.61
507016.937000,0.813,0.086,-0.51,-1.92,0.21,2.23
507016.984000,0.834,0.083,-0.511,-3.91,2.35,-4.18
507017.031000,0.817,0.111,-0.509,-3.94,1.43,-3.94
507017.078000,0.828,0.097,-0.525,-0.64,0.79,1.62
507017.125000,0.831,0.077,-0.53,-1.53,1.19,0.82
507017.171000,0.821,0.09,-0.521,0.64,1.13,-0.12
507017.218000,0.819,0.092,-0.52,-0.73,1.37,-0.15
507017.265000,0.829,0.116,-0.528,-0.31,1.65,-0.92
507017.312000,0.809,0.1,-0.509,-1.74,1.07,-0.43
507017.359000,0.821,0.11,-0.512,-2.11,-0.27,-1.74
507017.406000,0.819,0.095,-0.513,-3.78,-0.27,-2.5
507017.468000,0.827,0.111,-0.523,-1.34,0.03,-0.89
507017.515000,0.838,0.087,-0.526,-0.18,-0.49,0.24
507017.562000,0.822,0.102,-0.533,0.73,0.43,-0.79
507017.609000,0.829,0.097,-0.513,0.95,1.98,-1.28
507017.656000,0.821,0.124,-0.497,1.01,2.59,-1.1
507017.703000,0.815,0.122,-0.504,-0.52,0.7,0.55
507017.750000,0.824,0.112,-0.51,-0.4,0.4,0.64
507017.796000,0.816,0.101,-0.511,-0.58,0.06,0.67
507017.843000,0.831,0.105,-0.52,-0.85,-1.07,-1.34
507017.890000,0.831,0.105,-0.517,0.52,0.46,0.49
507017.937000,0.836,0.112,-0.509,0.27,0.09,-1.34
507017.984000,0.832,0.119,-0.515,0.58,1.5,2.14
507018.031000,0.823,0.11,-0.52,-0.43,1.19,0.15
507018.078000,0.8,0.107,-0.503,10.07,4.61,8.42
507018.125000,0.874,0.016,-0.555,25.97,16.17,10.32
507018.171000,0.925,-0.125,-0.793,80.6,53.04,25.51
507018.218000,0.761,-0.074,-1.104,133.98,116.82,11.84
507018.265000,0.546,0.146,-1.015,134.01,157.51,-13.25
507018.312000,0.6,0.086,-0.693,82.28,124.42,-18.46
507018.359000,0.742,0.069,-0.652,99.49,107.7,-8.0
507018.406000,0.746,0.096,-0.463,50.42,109.65,-24.72
507018.453000,0.836,-0.039,-0.065,9.19,107.12,-1.92
507018.500000,0.774,-0.084,0.167,-19.2,98.3,4.06
507018.546000,0.781,-0.187,0.49,-30.82,82.89,24.9
507018.593000,0.743,-0.139,0.823,-80.94,12.21,50.11
507018.640000,0.707,-0.181,0.881,-88.81,-37.14,87.04
507018.687000,1.022,-0.104,0.424,-122.04,-80.36,87.5
507018.734000,1.004,-0.418,0.493,-103.24,-37.57,125.74
507018.781000,1.159,-0.755,0.379,-63.02,-24.87,111.42
507018.828000,1.263,-0.629,0.115,-50.94,10.28,-26.22
507018.875000,1.043,-0.304,0.191,-39.46,25.24,-65.52
507018.921000,0.935,-0.274,0.145,-14.28,12.85,-16.79
507018.968000,0.885,-0.401,0.114,-3.66,3.91,1.22
507019.015000,0.814,-0.432,0.123,-12.82,-4.64,-18.68
507019.062000,0.807,-0.383,0.08,0.85,-13.52,-8.42
507019.109000,0.869,-0.386,0.063,3.88,-12.05,-1.8
507019.156000,0.908,-0.389,0.01,4.39,-13.98,-0.06
507019.203000,0.971,-0.38,-0.028,9.58,-4.67,2.41
507019.250000,0.917,-0.33,0.013,16.6,-0.73,5.16
507019.296000,0.898,-0.293,0.031,20.26,-6.81,3.57
507019.343000,0.906,-0.291,0.007,21.85,-11.05,-0.21
507019.390000,0.908,-0.306,-0.019,16.85,-15.84,-2.01
507019.437000,0.887,-0.353,0.007,18.98,-9.37,9.31
507019.484000,0.911,-0.418,0.005,14.62,-6.13,15.84
507019.531000,0.916,-0.439,-0.005,8.76,4.64,6.99
507019.578000,0.932,-0.456,-0.006,-0.46,10.74,-1.62
507019.625000,0.904,-0.458,-0.034,-2.81,12.05,-5.74
507019.671000,0.808,-0.297,-0.1,1.98,23.44,-4.03
507019.718000,0.867,-0.205,-0.023,4.82,28.08,17.12
507019.765000,1.02,-0.364,-0.067,-25.79,10.71,18.56
507019.812000,1.018,-0.529,-0.058,-17.94,3.3,18.59
507019.859000,0.9,-0.5,0.116,7.11,-3.39,19.44
507019.906000,0.842,-0.464,0.176,14.89,-17.76,6.47
507019.953000,0.86,-0.465,0.144,7.97,-29.08,-14.01
507020.000000,0.918,-0.47,-0.002,11.51,-22.49,-19.65
507020.046000,0.913,-0.432,-0.025,16.39,-6.38,-18.1
507020.109000,0.879,-0.342,0.015,9.28,0.98,-11.9
507020.156000,0.919,-0.398,-0.005,5.65,-2.93,-1.04
507020.203000,0.947,-0.448,0.002,11.57,3.3,-5.22
507020.250000,0.916,-0.379,0.132,31.25,5.43,2.66
507020.296000,0.892,-0.431,0.335,50.78,11.69,11.63
507020.343000,0.892,-0.57,0.523,78.83,22.55,-3.14
507020.390000,0.858,-0.688,0.543,91.98,38.12,-41.99
507020.437000,0.789,-0.702,0.416,125.83,53.68,-81.55
507020.484000,0.769,0.045,0.672,186.16,69.92,-84.96
507020.531000,0.765,0.668,1.117,82.25,49.56,-184.42
507020.578000,0.844,0.805,1.11,25.39,-47.67,-102.85
507020.625000,1.106,0.667,0.606,-56.09,-103.15,-79.99
507020.671000,0.758,0.634,0.114,-95.98,-179.02,-9.03
507020.718000,-0.005,0.556,-0.963,-132.21,-261.57,9.77
507020.765000,-0.092,0.264,-2.787,-182.78,-402.94,138.58
507020.812000,1.232,-0.545,-2.155,-204.9,-247.72,69.22
507020.859000,1.22,-0.469,-1.079,39.58,121.59,29.3
507020.906000,-0.111,0.261,-0.064,-24.66,68.76,-78.07
507020.953000,0.692,0.03,-0.414,-21.61,-60.98,18.07
507021.000000,0.948,-0.203,-0.474,4.73,-9.03,9.74
507021.046000,0.743,0.129,-0.353,-4.03,-0.58,-37.87
507021.093000,0.719,0.253,-0.4,-3.6,-18.4,-17.49
507021.140000,0.935,0.144,-0.548,1.16,-22.89,0.31
507021.187000,0.874,0.168,-0.487,5.13,-6.01,3.27
507021.234000,0.889,0.227,-0.499,-5.89,-9.43,-16.17
507021.281000,0.865,0.21,-0.521,-4.61,-8.21,4.36
507021.328000,0.894,0.139,-0.526,-4.85,-5.01,2.2
507021.375000,0.82,0.154,-0.534,-0.82,2.14,-0.67
507021.421000,0.799,0.191,-0.502,1.31,-0.37,-1.19
507021.468000,0.807,0.173,-0.515,-0.67,-1.19,3.57
507021.515000,0.797,0.17,-0.501,-2.29,-2.29,-5.65
507021.562000,0.808,0.209,-0.509,-2.5,-2.35,-4.85
507021.609000,0.785,0.177,-0.51,1.62,-3.63,5.22
507021.656000,0.826,0.158,-0.523,4.61,-6.23,7.81
507021.703000,0.84,0.159,-0.537,5.55,-1.19,4.0
507021.750000,0.816,0.203,-0.52,3.72,-0.24,0.55
507021.796000,0.83,0.208,-0.534,1.86,-3.94,2.41
507021.843000,0.855,0.161,-0.541,-4.43,-1.04,-1.56
507021.890000,0.839,0.183,-0.525,-2.17,2.08,-0.03
507021.937000,0.825,0.153,-0.511,-0.76,3.14,3.45
507021.984000,0.8,0.141,-0.485,0.7,1.71,3.2
507022.031000,0.802,0.139,-0.488,0.52,1.25,0.79
507022.078000,0.786,0.135,-0.493,-3.23,0.24,-4.46
507022.125000,0.782,0.158,-0.5,-0.55,-2.14,-0.7
507022.171000,0.808,0.15,-0.511,2.11,-3.36,2.44
507022.218000,0.819,0.172,-0.513,-1.19,-3.94,-5.62
507022.265000,0.823,0.173,-0.525,-0.73,-3.02,-0.43
507022.312000,0.837,0.167,-0.55,-1.89,-2.47,-3.63
507022.359000,0.858,0.165,-0.567,-1.89,-0.92,-2.59
507022.406000,0.838,0.157,-0.555,0.43,3.94,-2.32
507022.453000,0.829,0.177,-0.546,2.53,5.58,0.0
507022.500000,0.817,0.183,-0.535,1.53,6.96,-0.92
507022.546000,0.792,0.203,-0.5,3.11,7.11,0.43
507022.609000,0.789,0.197,-0.491,0.79,3.39,2.29
507022.656000,0.783,0.171,-0.492,-1.56,0.46,0.49
507022.703000,0.798,0.189,-0.507,-2.5,-1.86,-0.79
507022.750000,0.823,0.168,-0.51,-1.56,-1.07,1.68
507022.796000,0.821,0.167,-0.52,0.34,0.61,3.72
507022.843000,0.82,0.161,-0.516,-1.13,0.52,0.4
507022.890000,0.803,0.17,-0.507,-1.28,-0.31,-0.95
507022.937000,0.81,0.178,-0.509,-0.49,-0.37,-0.03
507023.000000,0.811,0.17,-0.509,-2.2,-0.85,-1.07
507023.046000,0.827,0.193,-0.527,-3.42,-1.22,-2.2
507023.093000,0.825,0.155,-0.512,-2.84,0.03,2.23
507023.140000,0.833,0.154,-0.526,-1.89,0.67,0.27
507023.187000,0.818,0.175,-0.507,0.18,3.48,0.18
507023.234000,0.809,0.184,-0.49,-0.49,1.01,-0.52
507023.281000,0.809,0.194,-0.497,-0.95,1.5,-0.21
507023.328000,0.804,0.187,-0.507,-1.16,-0.06,1.77
507023.375000,0.834,0.174,-0.517,0.49,0.52,2.47
507023.421000,0.874,0.13,-0.554,9.4,12.12,3.36
507023.468000,0.875,0.147,-0.577,19.81,26.52,1.83
507023.531000,0.846,0.111,-0.535,27.53,43.03,-8.3
507023.578000,0.891,0.178,-0.493,26.0,49.84,-14.95
507023.625000,0.896,0.162,-0.646,40.1,58.02,8.76
507023.671000,0.824,-0.031,-0.569,61.25,99.03,7.81
507023.718000,0.74,0.124,-0.764,56.67,114.9,-31.01
507023.765000,0.73,0.086,-0.617,64.12,144.23,-1.04
507023.812000,0.768,0.068,-0.581,64.15,142.95,-1.13
507023.859000,0.814,0.111,-0.3,59.39,124.39,-7.97
507023.906000,0.85,0.134,-0.276,59.63,112.86,21.73
507023.953000,0.82,0.056,-0.034,53.47,120.88,22.19
507024.000000,0.644,0.27,0.432,10.56,115.54,-3.48
507024.046000,0.629,0.251,0.847,9.25,77.88,30.98
507024.093000,0.644,0.387,1.069,-39.86,-16.39,55.73
507024.140000,0.669,0.303,0.901,-106.48,-91.25,86.55
507024.187000,1.091,-0.265,0.427,-126.8,-125.58,108.04
507024.234000,1.307,-0.469,0.293,-96.65,-51.67,37.87
507024.281000,1.184,-0.426,0.364,-50.05,-3.05,33.33
507024.328000,1.012,-0.246,0.291,-28.41,16.24,-3.02
507024.375000,0.946,-0.198,0.198,-20.51,13.95,-7.78
507024.421000,0.921,-0.259,0.163,-18.04,8.21,-3.97
507024.468000,0.877,-0.26,0.176,-14.44,5.68,-8.33
507024.515000,0.904,-0.285,0.162,-8.73,-6.35,2.59
507024.562000,0.915,-0.296,0.176,-1.98,-7.51,8.15
507024.609000,0.916,-0.278,0.176,5.65,-13.73,11.51
507024.656000,0.97,-0.278,0.126,9.03,-16.39,10.9
507024.703000,0.995,-0.264,0.127,10.44,-13.95,9.64
507024.750000,0.982,-0.251,0.109,10.38,-7.14,1.22
507024.796000,0.964,-0.227,0.102,11.93,-3.6,-3.2
507024.843000,0.963,-0.238,0.086,15.66,2.84,-3.91
507024.890000,0.935,-0.25,0.099,15.2,3.97,-5.07
507024.937000,0.945,-0.285,0.09,17.15,1.65,-3.78
507024.984000,0.973,-0.304,0.07,16.11,-3.97,-7.54
507025.031000,0.906,-0.226,0.134,19.41,4.33,-1.68
507025.078000,0.897,-0.225,0.16,9.09,-9.86,3.78
507025.125000,0.938,-0.242,0.155,10.93,-14.68,2.62
507025.171000,1.026,-0.3,0.119,10.35,-19.04,-1.65
507025.218000,0.966,-0.222,0.029,17.3,-6.62,-2.96
507025.265000,0.928,-0.196,0.067,14.34,-1.68,-1.13
507025.312000,0.875,-0.158,0.147,2.53,-12.7,2.66
507025.359000,0.989,-0.259,0.054,-5.52,-16.85,8.58
507025.406000,0.966,-0.24,0.086,-0.82,-5.04,10.1
507025.453000,0.976,-0.247,0.097,-0.46,-3.69,8.61
507025.500000,1.007,-0.28,0.037,-4.76,-2.87,-2.23
507025.546000,0.941,-0.247,0.058,2.11,6.87,-1.1
507025.593000,0.951,-0.276,0.047,-2.44,-0.31,-3.78
507025.640000,0.895,-0.24,0.106,1.43,-0.34,0.52
507025.687000,0.923,-0.288,0.143,8.36,-7.69,5.1
507025.734000,0.955,-0.312,0.211,22.0,-9.0,6.01
507025.781000,1.011,-0.312,0.231,36.38,-5.68,3.45
507025.843000,1.086,-0.298,0.072,40.86,-2.2,-21.58
507025.890000,0.994,-0.143,-0.027,44.5,13.15,-31.28
507025.937000,0.822,-0.066,0.041,34.21,1.95,-4.27
507025.984000,0.857,-0.179,0.061,20.14,-12.42,-1.16
507026.031000,0.957,-0.267,0.075,20.05,-10.44,-7.14
507026.078000,1.042,-0.179,0.09,15.23,-6.07,-11.38
507026.125000,1.08,-0.154,-0.015,9.55,10.44,-18.71
507026.171000,1.036,-0.163,0.008,9.61,21.94,-11.63
507026.218000,0.89,-0.124,0.08,4.73,20.81,-8.18
507026.281000,0.869,-0.183,0.096,1.1,2.93,0.03
507026.328000,0.898,-0.167,0.104,-2.9,-7.63,-3.11
507026.375000,0.957,-0.155,0.102,-2.41,-9.67,6.29
507026.421000,1.001,-0.157,0.087,-7.69,-4.27,8.97
507026.468000,0.987,-0.149,0.107,-7.66,1.07,14.47
507026.515000,0.97,-0.176,0.118,-10.35,2.26,12.57
507026.562000,0.96,-0.195,0.098,-12.57,-1.74,7.57
507026.609000,0.96,-0.2,0.109,-9.89,-3.33,4.82
507026.656000,0.963,-0.196,0.087,-10.38,-5.34,3.88
507026.703000,0.959,-0.191,0.07,-11.44,-5.04,6.16
507026.750000,0.963,-0.192,0.073,-14.19,-3.23,7.35
507026.796000,0.962,-0.214,0.091,-16.17,-1.16,10.9
507026.843000,0.96,-0.235,0.083,-15.99,-1.74,11.35
507026.890000,0.962,-0.237,0.091,-12.94,-1.59,8.94
507026.937000,0.968,-0.233,0.084,-11.17,-1.01,5.01
507026.984000,0.97,-0.232,0.073,-11.2,0.12,-0.92
507027.031000,0.943,-0.225,0.067,-10.68,0.0,-0.52
507027.078000,0.922,-0.234,0.101,-10.9,-5.13,0.82
507027.125000,0.929,-0.272,0.14,-3.94,-8.21,7.97
507027.171000,0.918,-0.293,0.212,4.3,-5.31,12.24
507027.218000,0.929,-0.329,0.341,24.63,3.05,23.13
507027.265000,0.701,-0.091,0.668,59.6,21.03,39.89
507027.312000,0.944,-0.032,0.659,21.55,-30.27,17.27
507027.359000,1.277,-0.199,0.446,-11.96,-35.22,-24.81
507027.406000,1.309,-0.359,0.441,42.79,10.62,19.26
507027.453000,1.314,-0.389,0.171,-11.72,-2.32,-65.55
507027.500000,1.138,-0.219,0.114,-27.34,-2.78,-82.95
507027.546000,0.724,-0.037,0.08,-51.58,-80.02,-63.81
507027.593000,0.668,0.078,-0.355,-84.57,-119.39,-63.23
507027.640000,0.407,0.24,-0.505,-119.94,-161.11,-71.81
507027.687000,0.403,0.393,-1.237,-171.15,-223.61,-44.86
507027.734000,0.454,0.132,-1.315,-186.56,-161.81,18.65
507027.781000,1.199,-0.68,-0.944,-58.02,-93.57,141.91
507027.828000,0.785,-0.247,-0.663,60.46,52.49,22.64
507027.875000,0.429,0.356,-0.337,-21.73,10.01,-81.3
507027.921000,0.734,0.257,-0.483,-28.47,-36.5,-34.03
507027.968000,0.944,0.137,-0.587,20.81,-10.25,46.39
507028.015000,0.851,0.041,-0.572,11.69,1.25,27.13
507028.062000,0.858,0.042,-0.601,-12.91,1.77,-30.92
507028.109000,0.816,0.174,-0.549,-5.4,6.68,-26.15
507028.156000,0.76,0.18,-0.529,-0.31,3.27,13.79
507028.203000,0.826,0.03,-0.547,-1.46,-2.29,14.65
507028.250000,0.82,0.032,-0.558,-3.36,1.22,-6.65
507028.312000,0.768,0.098,-0.509,0.34,1.04,-6.68
507028.359000,0.802,0.102,-0.533,1.07,-3.27,0.67
507028.406000,0.81,0.084,-0.537,1.74,-1.71,-1.59
507028.453000,0.805,0.124,-0.545,0.79,-2.04,-3.72
507028.500000,0.821,0.122,-0.556,0.85,-1.01,0.31
507028.546000,0.811,0.099,-0.558,0.76,0.52,1.98
507028.593000,0.811,0.107,-0.546,0.24,1.34,-1.46
507028.640000,0.799,0.114,-0.535,-0.15,0.79,-0.79
507028.687000,0.797,0.108,-0.539,-0.15,-0.15,1.04
507028.734000,0.804,0.098,-0.537,-0.95,-1.37,0.67
507028.781000,0.817,0.104,-0.545,-0.7,-0.46,-0.43
507028.828000,0.802,0.11,-0.537,1.01,-0.09,0.21
507028.875000,0.809,0.11,-0.533,-0.52,-2.17,-1.89
507028.921000,0.796,0.118,-0.539,-0.79,-1.01,-1.46
507028.968000,0.805,0.108,-0.538,-1.22,-6.96,-0.64
507029.015000,0.807,0.115,-0.568,-1.37,-1.68,0.34
507029.062000,0.801,0.099,-0.55,-1.13,-0.43,-0.24
507029.109000,0.792,0.121,-0.542,-1.43,-1.74,-1.68
507029.156000,0.795,0.107,-0.547,-1.95,-3.33,2.2
507029.203000,0.808,0.107,-0.568,-2.62,-2.96,-0.12
507029.250000,0.802,0.092,-0.561,-1.34,-1.62,0.98
507029.296000,0.802,0.101,-0.563,-3.05,-2.2,-3.2
507029.343000,0.805,0.108,-0.566,-0.09,-0.49,1.74
507029.406000,0.808,0.097,-0.57,-2.01,-0.92,-2.69
507029.453000,0.799,0.104,-0.567,-0.24,-0.03,-0.55
507029.500000,0.795,0.106,-0.571,-1.74,-0.79,-3.66
507029.546000,0.8,0.115,-0.57,0.06,0.92,-0.73
507029.593000,0.787,0.115,-0.564,0.58,0.76,-2.23
507029.640000,0.78,0.127,-0.554,0.15,0.79,-3.51
507029.687000,0.784,0.134,-0.556,-0.79,0.37,-3.51
507029.734000,0.793,0.136,-0.561,0.49,0.37,-1.01
507029.781000,0.789,0.143,-0.561,-0.15,0.37,-2.35
507029.828000,0.791,0.141,-0.565,-1.22,-0.18,-1.86
507029.890000,0.79,0.144,-0.568,0.58,0.76,-0.7
507029.937000,0.786,0.142,-0.557,-0.82,0.21,-0.89
507029.984000,0.779,0.155,-0.553,0.12,-0.4,0.95
507030.031000,0.783,0.14,-0.57,-2.04,-2.87,0.03
507030.078000,0.801,0.136,-0.578,-1.95,-1.46,0.92
507030.125000,0.794,0.127,-0.566,-1.04,0.43,0.58
507030.171000,0.793,0.133,-0.567,-1.62,0.0,-0.89
507030.218000,0.793,0.127,-0.56,-0.34,-0.06,0.4
507030.265000,0.793,0.13,-0.559,-0.4,0.09,-0.82
507030.328000,0.794,0.134,-0.549,0.31,1.83,-0.92
507030.375000,0.783,0.141,-0.557,-1.31,0.24,-1.16
507030.421000,0.785,0.14,-0.56,-1.56,0.46,-1.56
507030.468000,0.787,0.141,-0.559,0.06,-0.64,-1.5
507030.515000,0.776,0.148,-0.56,0.37,1.13,-0.79
507030.562000,0.788,0.143,-0.562,2.29,-0.31,0.61
507030.609000,0.784,0.159,-0.563,0.61,-0.12,-0.67
507030.656000,0.821,0.149,-0.591,2.35,-2.66,4.97
507030.703000,0.829,0.122,-0.588,-0.12,3.05,-0.85
507030.750000,0.817,0.131,-0.576,-2.53,4.61,-5.98
507030.796000,0.813,0.139,-0.569,-0.24,7.26,-1.31
507030.843000,0.803,0.136,-0.566,-1.31,7.29,-3.51
507030.890000,0.798,0.147,-0.557,-1.37,9.67,-3.75
507030.937000,0.829,0.144,-0.545,-2.84,9.7,-4.18
507030.984000,0.829,0.156,-0.566,-3.51,9.0,-6.29
507031.031000,0.841,0.174,-0.553,-1.98,12.48,-6.13
507031.078000,0.832,0.17,-0.527,-2.47,11.44,-2.08
507031.125000,0.827,0.158,-0.503,5.65,15.17,4.79
507031.171000,0.822,0.152,-0.495,6.59,11.11,5.55
507031.234000,0.823,0.161,-0.476,6.23,13.61,3.48
507031.281000,0.812,0.173,-0.472,5.31,10.9,-1.34
507031.328000,0.812,0.22,-0.468,3.51,8.7,-4.33
507031.375000,0.832,0.255,-0.487,-1.5,7.08,-0.21
507031.421000,0.844,0.201,-0.477,-1.43,6.71,14.1
507031.468000,0.867,0.123,-0.496,-2.53,7.26,14.01
507031.515000,0.83,0.037,-0.457,-2.66,6.87,8.24
507031.562000,0.856,0.036,-0.461,3.02,7.93,2.9
507031.609000,0.834,0.089,-0.425,6.26,11.99,-3.27
507031.656000,0.814,0.138,-0.397,6.71,6.68,-2.08
507031.703000,0.797,0.168,-0.388,2.84,1.65,-2.78
507031.750000,0.806,0.193,-0.394,-4.15,-6.68,-1.43
507031.796000,0.828,0.181,-0.434,-10.96,-12.3,3.63
507031.843000,0.86,0.13,-0.46,-11.63,-13.06,5.16
507031.890000,0.879,0.104,-0.481,-6.81,-9.95,4.33
507031.937000,0.883,0.095,-0.489,-4.82,-6.62,-1.53
507031.984000,0.863,0.117,-0.479,-0.92,-4.58,-1.89
507032.031000,0.86,0.124,-0.482,2.81,-1.68,-0.21
507032.078000,0.846,0.142,-0.485,2.2,-2.29,-1.68
507032.125000,0.829,0.144,-0.464,1.8,-0.98,-0.34
507032.171000,0.81,0.149,-0.462,2.66,-2.9,1.34
507032.218000,0.804,0.144,-0.459,-0.18,-6.07,0.79
507032.265000,0.816,0.146,-0.476,0.06,-9.16,2.41
507032.312000,0.84,0.143,-0.497,0.4,-8.27,1.86
507032.359000,0.854,0.135,-0.517,-1.19,-7.81,1.77
507032.406000,0.856,0.133,-0.516,1.62,-3.69,2.08
507032.453000,0.863,0.133,-0.53,1.31,-2.29,0.7
507032.500000,0.845,0.144,-0.528,2.2,0.15,0.76
507032.562000,0.822,0.144,-0.503,0.52,0.98,0.0
507032.609000,0.825,0.153,-0.509,-0.27,-0.67,0.21
507032.671000,0.804,0.143,-0.495,-1.8,-0.34,0.92
507032.718000,0.817,0.125,-0.497,-1.4,-3.6,1.1
507032.765000,0.817,0.132,-0.518,-1.8,-2.56,1.56
507032.812000,0.82,0.122,-0.516,-0.64,-2.69,1.04
507032.859000,0.818,0.136,-0.509,0.73,-1.59,-0.85
507032.906000,0.818,0.141,-0.51,3.45,-3.69,0.03
507032.953000,0.827,0.148,-0.527,6.78,-6.56,-1.86
507033.000000,0.836,0.135,-0.549,3.14,-2.23,-1.62
507033.046000,0.825,0.127,-0.535,0.76,0.09,0.58
507033.093000,0.815,0.119,-0.515,1.62,-0.46,0.52
507033.140000,0.796,0.122,-0.51,2.53,0.7,0.15
507033.187000,0.803,0.127,-0.517,3.45,-2.62,-1.01
507033.234000,0.793,0.127,-0.526,4.15,-5.95,-0.98
507033.281000,0.814,0.134,-0.558,1.28,-3.51,-2.35
507033.328000,0.82,0.132,-0.536,-0.21,-2.01,-1.4
507033.375000,0.822,0.13,-0.549,-1.59,-0.89,-0.7
507033.421000,0.835,0.122,-0.55,-0.89,-1.1,0.46
507033.468000,0.819,0.098,-0.552,2.08,1.89,1.71
507033.515000,0.8,0.098,-0.536,2.56,1.74,0.24
507033.562000,0.761,0.068,-0.501,3.05,-0.82,2.78
507033.609000,0.798,0.076,-0.536,7.54,-2.35,2.35
507033.656000,0.792,0.083,-0.532,9.58,-1.16,0.09
507033.703000,0.812,0.121,-0.543,8.51,-0.43,-5.07
507033.750000,0.821,0.152,-0.546,6.32,-1.25,-5.16
507033.812000,0.832,0.166,-0.569,3.69,-1.89,-4.06
507033.859000,0.836,0.134,-0.553,2.2,-1.89,-1.31
507033.906000,0.806,0.116,-0.571,1.71,1.07,-0.61
507033.953000,0.793,0.097,-0.557,2.56,2.41,-0.21
507034.000000,0.778,0.12,-0.55,3.45,2.14,-2.08
507034.046000,0.782,0.129,-0.55,2.11,1.62,-1.62
507034.093000,0.799,0.134,-0.548,0.95,-1.1,-2.9
507034.140000,0.803,0.139,-0.552,-1.13,-2.41,-3.63
507034.187000,0.81,0.128,-0.551,-1.01,-0.95,-0.92
507034.234000,0.809,0.114,-0.558,-1.31,-0.67,-1.8
507034.281000,0.807,0.124,-0.562,-1.89,0.12,-3.11
507034.328000,0.793,0.126,-0.54,-0.92,0.49,0.0
507034.375000,0.798,0.132,-0.545,-1.95,0.55,-0.7
507034.421000,0.79,0.128,-0.527,-2.44,0.49,0.15
507034.468000,0.797,0.125,-0.516,-3.17,-2.01,0.12
507034.515000,0.798,0.106,-0.53,-0.76,-1.86,4.12
507034.562000,0.81,0.067,-0.572,14.83,2.59,18.1
507034.609000,0.844,0.016,-0.756,56.58,27.86,34.46
507034.656000,0.829,-0.305,-1.19,139.32,88.63,46.57
507034.703000,0.444,-0.145,-1.413,121.31,134.16,-86.28
507034.750000,0.381,0.271,-1.112,67.72,188.54,-116.58
507034.796000,0.576,0.17,-0.508,86.55,186.68,-42.36
507034.843000,0.63,0.255,-0.294,68.54,165.56,-47.03
507034.890000,0.69,0.256,0.075,40.47,133.37,-25.91
507034.937000,0.748,0.205,0.272,4.33,106.42,-11.26
507034.984000,0.911,0.253,0.681,-9.06,38.54,19.87
507035.046000,0.73,0.35,0.955,-52.31,-19.29,87.68
507035.093000,0.725,0.203,0.614,-151.55,-110.97,98.51
507035.140000,1.293,-0.403,0.082,-159.95,-109.23,100.74
507035.187000,1.48,-0.564,0.327,-105.44,-1.34,41.78
507035.234000,1.063,-0.273,0.409,-36.68,37.42,11.87
507035.281000,0.878,-0.211,0.314,-7.14,25.06,8.58
507035.328000,0.884,-0.256,0.204,10.71,5.55,-4.24
507035.375000,0.954,-0.251,0.024,15.84,-5.62,-2.75
507035.421000,0.934,-0.184,-0.016,20.6,0.76,13.31
507035.468000,0.956,-0.217,0.0,8.33,-9.25,9.86
507035.515000,0.984,-0.244,0.027,11.35,-3.78,12.12
507035.562000,0.973,-0.229,0.061,8.51,-1.8,8.48
507035.609000,0.961,-0.234,0.037,5.89,1.43,6.44
507035.656000,0.962,-0.253,0.037,3.08,1.43,3.3
507035.703000,0.945,-0.234,0.035,1.1,3.3,-0.15
507035.750000,0.937,-0.248,0.052,3.2,1.34,9.46
507035.796000,0.954,-0.285,0.027,1.34,-1.71,5.01
507035.843000,0.959,-0.252,0.064,-0.27,-2.69,3.17
507035.890000,0.952,-0.261,0.05,0.34,-0.4,5.46
507035.937000,0.959,-0.253,0.026,0.03,-4.15,2.5
507035.984000,0.974,-0.246,0.031,-0.31,-1.98,-3.54
507036.031000,0.99,-0.241,0.015,-1.4,2.2,-1.8
507036.078000,0.97,-0.261,0.024,-5.68,4.18,-9.06
507036.125000,0.899,-0.255,0.08,-0.12,3.97,-2.26
507036.171000,0.908,-0.285,0.07,-0.34,-5.07,1.5
507036.218000,0.915,-0.28,0.045,5.31,-8.51,6.32
507036.265000,0.959,-0.281,0.026,9.43,-7.32,9.4
507036.312000,0.97,-0.259,0.019,6.5,-5.1,3.36
507036.359000,0.963,-0.243,0.012,8.12,-1.13,5.68
507036.406000,0.952,-0.276,0.046,11.69,0.18,11.29
507036.453000,0.968,-0.304,0.01,8.85,-0.06,0.15
507036.500000,0.951,-0.276,0.024,7.6,1.16,-3.02
507036.546000,0.936,-0.267,0.019,5.62,2.9,-0.7
507036.593000,0.928,-0.258,0.03,2.01,1.31,1.16
507036.640000,0.933,-0.277,0.025,1.5,1.37,4.85
507036.687000,0.931,-0.287,0.021,0.0,-0.06,7.42
507036.734000,0.955,-0.305,0.021,-1.4,-1.25,6.13
507036.781000,0.952,-0.279,0.036,-3.75,0.43,0.0
507036.828000,0.961,-0.284,0.04,-3.66,0.7,0.03
507036.875000,0.951,-0.293,0.045,-4.24,1.71,1.04
507036.921000,0.927,-0.296,0.049,-5.19,0.55,1.56
507036.968000,0.923,-0.305,0.042,-1.37,0.89,7.78
507037.015000,0.916,-0.305,0.053,-2.38,-3.36,5.74
507037.062000,0.961,-0.317,0.016,0.12,-1.95,4.94
507037.109000,0.945,-0.286,0.048,-0.58,-1.8,1.22
507037.156000,0.961,-0.305,0.026,-0.55,-0.82,1.22
507037.203000,0.929,-0.285,0.049,1.01,1.65,2.26
507037.250000,0.933,-0.302,0.046,4.79,1.1,10.25
507037.296000,0.944,-0.332,0.022,-0.27,0.82,0.24
507037.343000,0.949,-0.323,0.018,0.49,-0.55,-1.68
507037.390000,0.928,-0.3,0.047,2.53,0.0,-0.79
507037.437000,0.93,-0.309,0.045,0.67,0.52,-0.37
507037.484000,0.932,-0.321,0.04,2.23,-0.31,3.78
507037.531000,0.921,-0.326,0.043,1.68,1.31,1.07
507037.578000,0.928,-0.315,0.041,1.37,-0.67,0.64
507037.625000,0.941,-0.313,0.022,3.17,-1.1,2.62
507037.671000,0.942,-0.316,0.027,4.0,-1.59,3.48
507037.718000,0.934,-0.32,0.039,4.64,1.62,2.84
507037.765000,0.929,-0.324,0.033,0.95,-0.92,2.26
507037.812000,0.947,-0.341,0.01,1.31,-0.03,4.03
507037.859000,0.914,-0.278,0.069,-1.83,5.25,-2.81
507037.906000,0.84,-0.222,0.148,-4.12,1.13,1.83
507037.953000,0.85,-0.317,0.3,6.2,-16.24,20.54
507038.000000,0.997,-0.468,0.37,23.16,-15.14,5.83
507038.046000,1.111,-0.445,0.357,53.44,3.81,-16.94
507038.093000,1.066,-0.27,0.532,64.67,12.7,-21.18
507038.140000,1.083,-0.364,0.48,85.27,1.16,14.92
507038.187000,1.02,-0.353,0.441,57.95,-14.47,-44.1
507038.234000,1.071,-0.391,0.228,40.93,-40.68,-26.49
507038.281000,1.012,-0.343,0.051,11.17,-47.46,-57.01
507038.328000,0.937,-0.251,0.025,-16.94,-53.22,-63.72
507038.375000,0.724,-0.088,-0.113,-42.66,-87.83,-57.92
507038.421000,0.613,0.088,-0.249,-72.33,-103.82,-64.94
507038.468000,0.431,0.15,-0.427,-82.98,-140.29,-30.46
507038.515000,0.435,0.165,-0.699,-89.48,-158.57,-1.4
507038.562000,0.605,0.093,-0.936,-128.97,-142.55,-8.73
507038.609000,0.591,0.081,-0.752,-89.3,-86.25,36.71
507038.656000,0.82,-0.062,-0.741,-54.84,-63.11,22.92
507038.703000,0.898,-0.031,-0.787,-8.42,-20.87,18.28
507038.750000,0.826,-0.021,-0.796,4.3,-3.6,2.26
507038.796000,0.807,0.107,-0.706,12.21,9.43,-16.51
507038.843000,0.813,0.252,-0.679,24.41,8.18,-5.83
507038.890000,0.805,0.236,-0.655,23.32,12.54,2.93
507038.937000,0.829,0.233,-0.606,8.61,14.16,-8.03
507038.984000,0.81,0.207,-0.538,-3.05,9.58,5.37
507039.031000,0.795,0.035,-0.603,-14.89,-6.44,12.24
507039.078000,0.846,-0.04,-0.625,-17.03,-0.61,3.14
507039.125000,0.806,-0.027,-0.59,0.58,9.06,1.31
507039.171000,0.774,0.068,-0.522,1.1,11.41,-11.29
507039.218000,0.747,0.104,-0.487,-1.74,3.81,-2.56
507039.265000,0.772,0.107,-0.531,-3.51,-1.86,-1.28
507039.312000,0.803,0.096,-0.517,0.67,1.37,5.98
507039.359000,0.8,0.063,-0.507,-2.08,-0.37,-4.36
507039.406000,0.799,0.116,-0.519,-3.91,2.59,-8.03
507039.453000,0.77,0.088,-0.517,-8.73,-2.72,-8.45
507039.500000,0.82,0.069,-0.58,-3.66,-6.62,2.35
507039.562000,0.789,0.082,-0.583,6.99,3.57,2.56
507039.609000,0.785,0.148,-0.529,2.53,3.33,-5.95
507039.656000,0.776,0.172,-0.513,-3.81,-3.75,-3.78
507039.703000,0.795,0.166,-0.564,-3.42,-4.15,4.27
507039.750000,0.799,0.131,-0.594,-3.94,-1.68,2.84
507039.812000,0.835,0.088,-0.713,18.28,15.99,12.27
507039.859000,0.799,0.065,-0.801,31.25,43.0,-16.66
507039.921000,0.682,0.133,-0.934,65.25,90.24,-22.16
507039.968000,0.608,0.105,-0.976,83.25,104.83,-1.77
507040.015000,0.645,0.108,-0.991,48.04,113.56,-36.74
507040.062000,0.659,0.041,-0.79,64.03,105.35,-4.79
507040.109000,0.732,0.049,-0.536,57.65,134.28,-47.7
507040.156000,0.808,0.08,-0.224,19.47,118.78,-28.9
507040.203000,0.875,-0.024,0.242,-4.55,105.84,-14.28
507040.250000,0.9,0.033,0.659,-39.16,84.51,-22.28
507040.296000,0.794,0.153,1.103,-71.81,13.61,61.31
507040.343000,0.349,0.565,1.064,-127.11,-49.13,97.17
507040.390000,0.787,-0.213,0.473,-169.65,-147.22,168.98
507040.437000,1.59,-0.629,0.037,-96.84,-21.7,66.77
507040.484000,1.252,-0.348,0.435,-37.63,33.78,-2.26
507040.531000,0.877,-0.185,0.248,15.08,16.82,3.42
507040.578000,0.851,-0.25,0.091,22.71,-0.76,-3.08
507040.625000,0.906,-0.24,-0.019,24.9,-13.37,-1.62
507040.671000,0.949,-0.159,-0.054,19.5,-11.6,10.07
507040.718000,1.009,-0.195,-0.038,10.65,-7.6,18.62
507040.765000,0.996,-0.277,-0.018,7.29,-5.31,19.56
507040.812000,0.96,-0.257,0.006,14.95,-2.04,15.05
507040.859000,0.948,-0.23,0.038,11.05,-7.57,6.78
507040.906000,0.963,-0.263,0.005,11.32,-11.66,9.52
507040.953000,0.965,-0.285,-0.014,9.83,-6.16,3.85
507041.000000,0.943,-0.252,-0.042,8.27,-1.25,-2.62
507041.046000,0.922,-0.234,-0.026,5.55,0.73,-0.85
507041.093000,0.94,-0.271,-0.025,-0.34,-3.91,5.1
507041.140000,0.96,-0.283,-0.045,2.35,-3.3,10.1
507041.187000,0.968,-0.265,-0.025,-0.89,2.29,0.76
507041.234000,0.96,-0.264,-0.014,-2.96,1.59,-0.89
507041.281000,0.944,-0.276,0.001,-1.53,3.97,2.23
507041.328000,0.916,-0.289,0.038,-0.67,-0.7,3.27
507041.375000,0.924,-0.294,0.024,1.65,-0.31,3.57
507041.421000,0.948,-0.296,0.009,0.4,-2.9,3.2
507041.468000,0.962,-0.291,-0.027,1.89,-1.65,5.4
507041.515000,0.941,-0.267,0.005,1.8,-0.52,4.97
507041.562000,0.952,-0.291,-0.013,0.03,-3.08,5.07
507041.609000,0.966,-0.323,-0.019,-1.04,-1.68,3.02
507041.656000,0.94,-0.297,-0.001,2.38,1.46,0.34
507041.703000,0.913,-0.277,0.01,2.08,-1.1,3.27
507041.750000,0.956,-0.331,-0.032,0.27,-2.99,4.21
507041.796000,0.945,-0.307,-0.025,1.13,1.56,-1.01
507041.843000,0.95,-0.301,-0.021,0.21,2.01,-0.21
507041.890000,0.929,-0.291,0.004,-0.4,2.59,1.34
507041.937000,0.923,-0.291,0.0,-0.85,0.03,0.09
507041.984000,0.943,-0.312,-0.017,-0.89,-1.68,1.31
507042.031000,0.957,-0.33,-0.024,0.34,2.26,0.37
507042.078000,0.93,-0.301,0.008,0.18,1.43,0.67
507042.125000,0.947,-0.318,-0.014,0.98,2.14,1.5
507042.171000,0.938,-0.31,0.0,3.33,2.72,0.52
507042.218000,0.909,-0.268,0.012,2.01,1.07,0.24
507042.265000,0.933,-0.307,-0.006,-0.82,0.03,1.4
507042.312000,0.925,-0.306,-0.003,-0.52,-1.5,1.5
507042.359000,0.944,-0.321,-0.015,0.95,-1.53,2.14
507042.406000,0.946,-0.308,-0.003,0.31,0.37,0.12
507042.453000,0.942,-0.3,-0.008,-1.8,-0.09,-0.21
507042.500000,0.946,-0.317,-0.017,-0.52,-0.52,1.65
507042.546000,0.924,-0.304,0.014,-0.49,0.31,-1.56
507042.593000,0.939,-0.311,-0.005,-0.46,-1.59,0.09
507042.640000,0.954,-0.32,-0.024,-1.04,-1.4,-0.09
507042.687000,0.93,-0.297,-0.006,-0.46,1.77,-0.21
507042.734000,0.931,-0.305,-0.009,-1.16,0.15,0.21
507042.781000,0.953,-0.332,-0.029,-0.43,0.03,0.82
507042.828000,0.938,-0.295,-0.01,-0.79,0.95,-1.25
507042.875000,0.941,-0.302,-0.009,0.4,1.56,1.65
507042.921000,0.92,-0.288,0.006,-2.01,0.12,0.21
507042.968000,0.925,-0.309,0.004,-0.73,-0.79,2.08
507043.015000,0.924,-0.317,0.0,-0.58,-0.85,2.69
507043.062000,0.935,-0.306,-0.009,-1.77,-2.96,1.77
507043.109000,0.976,-0.336,-0.054,0.98,-3.66,5.43
507043.171000,0.953,-0.322,-0.019,0.18,0.76,-2.62
507043.218000,0.933,-0.306,0.0,3.88,2.53,-1.5
507043.265000,0.916,-0.286,-0.002,0.64,-0.67,-1.74
507043.312000,0.921,-0.305,-0.003,0.67,-2.11,0.18
507043.359000,0.936,-0.319,-0.013,0.4,-3.14,-2.9
507043.406000,0.947,-0.32,-0.028,1.89,-2.14,-2.04
507043.453000,0.952,-0.308,-0.021,1.46,-1.68,-3.3
507043.500000,0.934,-0.282,-0.027,-0.4,0.89,-2.84
507043.546000,0.934,-0.296,-0.013,-0.85,0.18,0.76
507043.593000,0.946,-0.333,-0.02,0.18,-0.46,-0.52
507043.640000,0.936,-0.306,-0.013,3.33,0.37,-2.38
507043.687000,0.928,-0.289,-0.006,3.54,0.89,-1.31
507043.734000,0.949,-0.343,0.112,10.1,2.93,5.8
507043.781000,1.02,-0.532,0.328,46.05,12.88,24.23
507043.828000,1.087,-0.457,0.64,107.18,42.05,0.64
507043.875000,1.052,-0.121,0.924,123.45,45.44,-30.67
507043.921000,1.059,-0.224,0.945,122.68,21.39,3.14
507043.968000,1.108,-0.361,0.833,64.03,-18.46,-39.83
507044.015000,0.813,-0.153,0.59,19.17,-44.65,-61.16
507044.062000,0.533,0.082,0.412,-72.85,-101.29,-93.45
507044.109000,0.155,0.135,-0.321,-120.06,-185.77,-47.18
507044.156000,0.051,-0.011,-1.292,-91.49,-237.74,37.29
507044.203000,0.179,0.043,-1.617,-184.12,-233.1,-65.92
507044.250000,0.468,0.214,-1.285,-148.93,-155.25,-50.78
507044.296000,0.928,-0.134,-0.918,-24.54,-88.38,80.97
507044.343000,0.889,0.058,-0.924,4.15,-13.95,-2.47
507044.390000,0.775,0.215,-0.734,-14.04,-12.67,-33.72
507044.437000,0.878,0.203,-0.771,-3.02,-13.37,-3.11
507044.500000,0.85,0.091,-0.711,5.22,7.69,19.68
507044.546000,0.746,-0.003,-0.632,6.56,7.35,18.56
507044.593000,0.727,0.02,-0.623,4.97,8.06,2.32
507044.640000,0.691,0.044,-0.587,-1.16,6.47,-5.34
507044.687000,0.707,0.049,-0.586,-2.17,4.12,-2.38
507044.734000,0.735,0.06,-0.607,-2.72,-0.24,-4.7
507044.781000,0.779,0.046,-0.629,-2.01,-2.14,-2.11
507044.828000,0.779,0.044,-0.628,-1.83,1.25,-3.78
507044.875000,0.767,0.074,-0.616,-0.34,3.6,-2.99
507044.921000,0.724,0.085,-0.593,5.25,2.75,2.53
507044.968000,0.684,0.087,-0.639,7.75,2.44,6.1
507045.015000,0.714,0.002,-0.817,42.42,15.26,28.29
507045.062000,0.774,-0.156,-1.042,87.22,40.59,33.94
507045.109000,0.672,-0.038,-1.462,95.37,129.25,-53.62
507045.156000,0.5,0.164,-1.145,87.37,171.79,-55.48
507045.203000,0.579,0.078,-1.097,70.74,152.65,-50.6
507045.250000,0.787,0.088,-0.613,96.71,163.73,-26.0
507045.296000,0.741,0.15,-0.285,75.78,155.89,-32.87
507045.343000,0.734,-0.099,0.203,56.55,128.85,5.95
507045.390000,0.706,-0.084,0.341,-15.29,109.78,-38.12
507045.437000,0.72,-0.044,0.786,-47.82,103.7,3.14
507045.484000,0.436,0.14,1.227,-107.61,51.36,36.07
507045.531000,0.215,0.347,1.296,-152.47,-48.37,74.47
507045.578000,0.912,-0.536,0.36,-125.83,-125.92,193.98
507045.625000,1.426,-0.683,0.331,-81.67,-2.01,81.48
507045.671000,1.282,-0.337,0.456,-38.21,16.08,8.18
507045.718000,1.097,-0.25,0.306,-8.09,10.22,-16.45
507045.765000,1.04,-0.393,0.141,0.03,1.65,-46.94
507045.812000,0.923,-0.376,0.048,9.43,7.63,-52.25
507045.859000,0.758,-0.287,0.09,9.52,10.53,-22.77
507045.906000,0.727,-0.329,0.125,8.36,-2.9,22.25
507045.953000,0.829,-0.361,0.128,12.09,-9.77,41.05
507046.000000,0.935,-0.355,0.121,-3.42,-12.42,18.49
507046.046000,0.97,-0.344,0.121,1.86,-14.8,20.11
507046.093000,1.003,-0.386,0.099,8.45,-14.04,23.44
507046.140000,1.002,-0.405,0.084,12.73,-11.2,4.46
507046.187000,0.931,-0.327,0.08,11.84,-5.95,-9.03
507046.234000,0.897,-0.308,0.077,6.56,-3.51,-5.49
507046.281000,0.871,-0.338,0.109,0.18,-2.29,3.45
507046.328000,0.867,-0.394,0.098,-0.03,-5.68,15.2
507046.375000,0.911,-0.456,0.079,1.25,-5.49,15.08
507046.421000,0.923,-0.439,0.079,9.28,-2.5,9.74
507046.468000,0.925,-0.377,0.075,8.61,-3.3,1.86
507046.515000,0.938,-0.365,0.082,6.78,-3.2,-1.31
507046.562000,0.936,-0.375,0.06,2.66,-1.8,-1.25
507046.609000,0.924,-0.381,0.053,0.98,2.84,-2.47
507046.656000,0.891,-0.382,0.086,-1.19,4.3,-1.77
507046.703000,0.875,-0.379,0.096,-2.99,2.44,0.15
507046.750000,0.886,-0.414,0.096,-2.84,-2.75,6.04
507046.796000,0.89,-0.41,0.092,0.46,-3.85,6.26
507046.843000,0.893,-0.384,0.109,0.37,-6.07,3.75
507046.890000,0.907,-0.395,0.077,-3.23,-9.61,3.75
507046.937000,0.916,-0.413,0.062,-1.1,-6.1,2.96
507046.984000,0.923,-0.415,0.046,-1.59,-4.43,1.04
507047.031000,0.905,-0.392,0.069,2.11,0.7,0.61
507047.078000,0.896,-0.383,0.069,0.79,-0.37,-0.27
507047.125000,0.894,-0.407,0.078,0.06,-1.8,-0.21
507047.171000,0.886,-0.395,0.08,-1.98,-3.97,-2.32
507047.218000,0.893,-0.401,0.062,-7.05,-6.53,0.21
507047.265000,0.909,-0.42,0.044,0.92,-1.16,4.12
507047.312000,0.906,-0.419,0.037,0.12,-0.15,1.13
507047.359000,0.902,-0.407,0.053,1.74,-0.27,1.53
507047.406000,0.909,-0.4,0.048,2.93,-2.53,1.28
507047.453000,0.91,-0.392,0.046,1.34,-2.78,-1.31
507047.500000,0.906,-0.393,0.046,-2.26,-3.63,-1.65
507047.546000,0.881,-0.395,0.042,-8.85,-5.71,2.5
507047.593000,0.893,-0.44,0.007,-2.66,-1.71,3.17
507047.640000,0.893,-0.428,0.015,-0.46,3.14,-1.77
507047.687000,0.888,-0.399,0.05,0.98,3.66,2.26
507047.734000,0.889,-0.387,0.057,-2.29,1.71,2.9
507047.781000,0.895,-0.401,0.048,-3.02,-0.49,4.06
507047.828000,0.915,-0.431,0.033,-0.76,0.24,1.19
507047.875000,0.917,-0.431,0.021,-0.58,0.37,-1.43
507047.921000,0.904,-0.401,0.035,-0.67,2.11,-2.93
507047.968000,0.903,-0.394,0.032,-1.13,4.0,-3.05
507048.015000,0.892,-0.417,0.041,-3.94,1.68,-0.06
507048.062000,0.89,-0.42,0.053,-3.66,3.02,0.12
507048.109000,0.891,-0.418,0.067,-1.1,0.79,0.24
507048.156000,0.878,-0.394,0.107,2.32,-0.06,2.41
507048.203000,0.896,-0.474,0.257,17.94,-5.71,14.16
507048.250000,0.941,-0.51,0.457,63.57,-4.33,26.22
507048.296000,1.084,-0.454,0.656,115.45,-18.86,17.52
507048.343000,1.107,-0.439,0.611,129.67,-16.54,5.52
507048.390000,1.129,-0.392,0.569,93.11,-7.9,-50.87
507048.437000,1.083,-0.39,0.577,47.79,-13.64,-82.46
507048.484000,1.064,-0.333,0.378,25.09,-22.49,-66.13
507048.531000,0.727,-0.083,0.4,-46.88,-9.49,-110.29
507048.578000,0.402,0.119,0.281,-94.49,-93.63,-89.66
507048.625000,0.133,0.033,-0.315,-93.33,-189.49,11.2
507048.671000,0.102,0.041,-0.833,-110.81,-225.81,22.8
507048.734000,0.349,0.147,-1.429,-191.96,-234.81,-45.56
507048.781000,0.422,-0.041,-1.058,-133.88,-130.62,23.26
507048.828000,0.976,-0.401,-1.031,-10.65,-80.94,42.66
507048.875000,0.815,0.072,-0.938,-3.42,-8.94,-54.14
507048.921000,0.783,0.294,-0.794,-31.19,-25.36,-67.72
507048.968000,0.905,0.261,-0.913,0.64,-29.08,1.98
507049.015000,0.931,0.147,-0.888,28.84,1.83,41.41
507049.062000,0.794,0.061,-0.747,16.14,17.98,24.35
507049.109000,0.722,0.065,-0.69,-2.72,16.66,-10.99
507049.156000,0.659,0.117,-0.636,-1.4,17.33,-2.9
507049.203000,0.635,0.079,-0.57,1.95,11.78,9.25
507049.265000,0.715,0.024,-0.626,-3.57,8.18,0.24
507049.312000,0.711,0.069,-0.628,-5.46,4.7,-10.65
507049.359000,0.72,0.078,-0.635,-3.81,7.75,-3.81
507049.406000,0.778,0.057,-0.66,-1.46,7.51,-0.58
507049.453000,0.786,0.054,-0.684,-0.67,16.33,-3.6
507049.500000,0.771,0.055,-0.621,5.52,20.26,-1.68
507049.546000,0.765,0.084,-0.6,5.52,21.36,-5.37
507049.593000,0.768,0.114,-0.595,3.54,17.94,-2.84
507049.640000,0.76,0.069,-0.581,3.72,19.17,3.17
507049.687000,0.784,0.056,-0.569,5.86,14.83,0.0
507049.734000,0.776,0.086,-0.551,0.46,12.21,-4.09
507049.781000,0.794,0.103,-0.532,-0.37,8.18,-3.05
507049.828000,0.797,0.102,-0.548,-1.83,5.04,0.21
507049.875000,0.819,0.122,-0.551,-4.09,9.03,-0.03
507049.921000,0.823,0.117,-0.504,-7.26,3.97,-1.5
507049.968000,0.853,0.142,-0.505,-3.81,6.47,2.53
507050.015000,0.84,0.083,-0.492,-7.05,1.71,7.14
507050.062000,0.827,0.054,-0.529,4.64,5.07,16.94
507050.109000,0.787,0.017,-0.668,8.64,5.19,10.74
507050.156000,0.738,-0.029,-0.796,41.51,38.85,14.89
507050.203000,0.769,-0.149,-1.197,94.79,64.79,14.37
507050.250000,0.518,0.104,-1.291,107.18,148.23,-60.95
507050.296000,0.372,0.192,-1.088,110.11,125.8,-31.77
507050.343000,0.514,-0.035,-0.86,78.89,132.33,-34.36
507050.390000,0.709,0.226,-0.454,65.19,126.59,-75.87
507050.437000,0.75,0.148,-0.088,45.69,117.98,-30.43
507050.484000,0.85,-0.046,0.288,-9.19,66.53,4.7
507050.531000,0.88,0.08,0.569,-88.78,56.79,-21.49
507050.578000,0.772,-0.019,1.048,-115.18,-50.9,79.26
507050.625000,0.885,-0.123,0.657,-113.93,-114.99,134.56
507050.671000,1.04,-0.226,0.419,-107.85,-125.16,144.57
507050.718000,1.403,-0.481,0.025,-82.03,-58.38,111.21
507050.765000,1.368,-0.297,0.07,-59.51,25.54,21.03
507050.812000,1.087,-0.11,0.088,-56.95,49.07,-6.1
507050.859000,0.913,-0.327,0.102,-31.19,44.74,14.5
507050.906000,0.855,-0.396,0.044,0.64,13.92,0.34
507050.953000,0.878,-0.314,-0.042,13.89,-10.41,-13.61
507051.000000,0.957,-0.235,-0.167,19.38,-17.18,-11.35
507051.046000,0.967,-0.231,-0.152,14.62,-2.81,-4.36
507051.093000,0.923,-0.239,-0.107,10.77,-0.82,4.36
507051.140000,0.943,-0.308,-0.136,14.44,-3.81,17.49
507051.187000,0.929,-0.308,-0.147,17.73,-2.38,4.49
507051.234000,0.9,-0.229,-0.121,7.39,-9.22,-3.85
507051.281000,0.938,-0.278,-0.137,5.46,-4.33,5.4
507051.328000,0.913,-0.279,-0.099,2.72,-1.98,9.16
507051.375000,0.956,-0.334,-0.142,-4.06,-3.57,5.49
507051.421000,0.941,-0.321,-0.174,2.69,-2.93,1.8
507051.468000,0.929,-0.28,-0.151,2.17,-2.17,-0.24
507051.515000,0.919,-0.266,-0.154,0.09,-4.09,0.52
507051.562000,0.932,-0.285,-0.163,-4.55,-5.19,-0.24
507051.609000,0.956,-0.314,-0.157,-1.28,-1.56,0.85
507051.656000,0.928,-0.289,-0.116,2.11,6.1,-0.7
507051.703000,0.893,-0.263,-0.1,1.53,4.58,1.46
507051.750000,0.908,-0.303,-0.111,-2.66,-0.12,3.17
507051.812000,0.936,-0.339,-0.161,2.17,-1.31,4.12
507051.859000,0.928,-0.312,-0.157,2.5,-0.31,3.33
507051.906000,0.919,-0.284,-0.154,0.67,-0.89,3.33
507051.953000,0.938,-0.3,-0.155,-4.24,-2.9,3.23
507052.000000,0.936,-0.317,-0.151,-6.1,-2.84,3.17
507052.046000,0.922,-0.321,-0.112,-5.62,-0.21,0.34
507052.093000,0.922,-0.331,-0.12,-3.45,-1.83,0.85
507052.156000,0.933,-0.316,-0.158,-1.59,-2.78,-2.56
507052.203000,0.918,-0.295,-0.158,1.07,-2.11,-3.23
507052.250000,0.917,-0.3,-0.156,2.04,-2.87,-1.28
507052.296000,0.915,-0.309,-0.163,-0.98,-4.91,-0.58
507052.343000,0.925,-0.309,-0.172,0.43,-3.78,0.82
507052.390000,0.918,-0.276,-0.153,-3.02,-1.59,0.34
507052.437000,0.94,-0.302,-0.202,-10.01,-0.73,4.33
507052.484000,0.922,-0.326,-0.153,1.46,4.09,2.5
507052.531000,0.91,-0.317,-0.16,-0.03,1.46,-1.04
507052.578000,0.918,-0.312,-0.165,4.91,-2.44,-0.37
507052.625000,0.933,-0.291,-0.157,2.93,-3.94,-3.39
507052.671000,0.93,-0.281,-0.163,1.28,-3.48,-2.93
507052.734000,0.935,-0.326,-0.178,0.46,-1.65,-4.58
507052.781000,0.892,-0.31,-0.152,0.58,3.11,-2.59
507052.828000,0.893,-0.306,-0.168,-0.24,1.28,-0.09
507052.875000,0.92,-0.307,-0.168,-2.72,-0.92,1.59
507052.921000,0.936,-0.308,-0.179,-0.03,-1.62,2.47
507052.968000,0.924,-0.292,-0.158,-0.76,-1.34,-0.15
507053.015000,0.945,-0.3,-0.175,-0.7,-3.88,-3.17
507053.062000,0.938,-0.305,-0.168,-0.49,-0.98,-2.14
507053.109000,0.909,-0.297,-0.13,1.86,0.82,-2.38
507053.156000,0.897,-0.297,-0.115,5.34,-2.81,-2.01
507053.203000,0.939,-0.297,-0.18,1.71,-9.46,-7.23
507053.250000,0.953,-0.298,-0.217,3.33,-7.9,-3.88
507053.312000,0.949,-0.278,-0.21,6.29,-1.74,-4.09
507053.359000,0.93,-0.246,-0.194,0.79,2.44,-7.63
507053.421000,0.9,-0.28,-0.168,-0.64,2.72,-2.9
507053.468000,0.904,-0.309,-0.143,2.59,-1.62,-1.13
507053.515000,0.986,-0.32,-0.074,12.36,-1.4,-3.78
507053.562000,1.141,-0.39,0.043,41.23,1.16,-7.63
507053.609000,1.34,-0.417,0.099,63.02,40.8,-44.53
507053.656000,1.282,-0.399,0.256,106.11,94.42,-46.05
507053.703000,1.229,-0.394,0.355,148.59,119.33,-28.53
507053.750000,1.097,-0.133,0.535,160.71,148.84,-66.44
507053.796000,0.893,0.037,0.781,118.53,127.2,-69.92
507053.843000,0.842,0.045,0.751,81.0,68.21,-31.07
507053.890000,0.843,0.048,0.466,18.92,6.84,-17.58
507053.937000,0.679,0.062,0.348,-33.2,-43.64,-12.73
507053.984000,0.611,0.078,0.048,-77.12,-94.82,-20.97
507054.031000,0.463,0.048,-0.111,-62.87,-135.07,14.04
507054.078000,0.472,0.073,-0.338,-74.92,-169.26,21.94
507054.125000,0.304,-0.007,-0.631,-107.06,-217.26,13.95
507054.171000,0.637,0.017,-1.017,-139.41,-213.57,-51.03
507054.218000,0.793,0.344,-0.802,-157.9,-59.42,-61.74
507054.265000,1.263,-0.273,-0.721,-32.14,-59.88,75.08
507054.312000,1.005,0.058,-0.577,23.96,12.94,0.67
507054.359000,0.685,0.225,-0.335,-13.89,-12.57,-3.66
507054.406000,0.779,0.081,-0.401,-10.65,-29.94,8.79
507054.453000,0.848,0.01,-0.357,-7.51,-27.01,-0.31
507054.500000,0.802,0.023,-0.477,7.75,-18.77,14.95
507054.546000,0.877,0.012,-0.457,4.76,-20.17,-4.85
507054.593000,0.866,0.114,-0.542,6.2,-16.72,-17.03
507054.656000,0.924,0.12,-0.562,8.39,-19.59,-1.92
507054.703000,0.981,0.135,-0.567,6.62,-10.47,4.33
507054.750000,0.966,0.117,-0.544,-1.31,-1.56,-4.7
507054.796000,0.874,0.111,-0.527,-5.16,0.03,8.12
507054.843000,0.85,0.055,-0.516,-2.81,-0.95,15.84
507054.890000,0.815,0.015,-0.508,1.8,4.18,13.86
507054.937000,0.787,0.025,-0.473,-2.32,1.07,-0.27
507054.984000,0.784,0.041,-0.454,0.15,-0.15,1.13
507055.031000,0.827,0.058,-0.475,-1.83,-4.61,3.48
507055.078000,0.858,0.033,-0.485,0.46,-4.58,4.49
507055.125000,0.882,0.03,-0.518,-2.66,-7.26,-2.35
507055.171000,0.885,0.031,-0.507,-2.2,2.14,-0.43
507055.234000,0.845,0.047,-0.505,2.66,0.27,5.52
507055.281000,0.719,0.039,-0.602,9.34,0.73,12.36
507055.328000,0.86,0.039,-0.743,37.84,15.75,16.21
507055.375000,0.877,-0.097,-0.841,74.07,42.21,28.63
507055.421000,0.75,-0.197,-1.046,96.56,74.53,-33.72
507055.468000,0.555,-0.052,-1.15,121.74,99.15,-59.85
507055.515000,0.513,0.046,-0.823,106.88,60.03,-64.09
507055.562000,0.629,0.023,-0.712,90.43,64.06,-67.14
507055.609000,0.784,0.075,-0.392,54.78,102.76,-79.93
507055.656000,0.83,0.05,-0.071,39.92,100.47,-48.52
507055.703000,0.898,0.067,0.132,29.73,95.07,-42.94
507055.750000,0.871,0.163,0.308,-18.34,94.55,-54.6
507055.796000,0.877,0.133,0.601,-35.34,84.96,-4.27
507055.843000,0.804,0.253,0.589,-73.64,55.39,35.4
507055.890000,0.716,0.437,0.679,-124.24,39.7,57.95
507055.937000,0.568,0.239,0.75,-182.84,-8.06,93.42
507055.984000,1.189,-0.274,0.418,-133.18,-28.26,85.12
507056.031000,1.261,-0.517,0.482,-141.24,13.82,1.8
507056.078000,0.932,-0.386,0.464,-62.99,40.35,20.63
507056.125000,0.865,-0.261,0.462,-24.6,29.63,22.83
507056.171000,0.91,-0.217,0.36,-36.9,1.68,-25.91
507056.218000,0.911,-0.241,0.34,5.89,-6.23,5.62
507056.265000,0.958,-0.272,0.196,20.69,-19.2,10.1
507056.312000,0.932,-0.218,0.159,10.53,-15.78,-10.53
507056.359000,0.923,-0.217,0.206,16.85,-14.83,8.42
507056.406000,0.966,-0.204,0.141,14.59,-14.53,9.95
507056.453000,0.969,-0.241,0.155,0.79,-5.65,4.49
507056.500000,0.945,-0.288,0.186,5.58,5.52,12.42
507056.562000,0.876,-0.28,0.225,12.85,-0.43,8.67
507056.609000,0.926,-0.252,0.124,5.95,-7.97,-4.67
507056.656000,0.949,-0.197,0.143,-5.22,-2.01,-9.19
507056.703000,0.946,-0.209,0.19,4.39,2.35,16.51
507056.750000,0.943,-0.272,0.212,-4.7,-0.31,15.47
507056.796000,0.965,-0.293,0.198,-3.81,-3.48,8.48
507056.843000,0.989,-0.328,0.149,-0.03,-3.2,2.14
507056.890000,0.962,-0.27,0.166,2.47,2.84,-7.26
507056.937000,0.973,-0.233,0.162,-7.02,8.18,-14.8
507056.984000,0.923,-0.236,0.189,-6.59,11.78,-11.26
507057.031000,0.876,-0.265,0.228,-0.95,6.56,9.19
507057.078000,0.882,-0.336,0.19,8.76,-4.3,15.63
507057.125000,0.923,-0.287,0.188,10.44,-6.5,3.36
507057.171000,0.952,-0.236,0.174,3.51,-10.07,-3.91
507057.218000,0.951,-0.239,0.194,6.04,-5.28,6.07
507057.265000,0.935,-0.275,0.204,4.33,-5.83,8.91
507057.312000,0.91,-0.277,0.212,7.17,-7.84,8.03
507057.359000,0.925,-0.291,0.214,9.46,-11.84,4.09
