t_monotonic,ax,ay,az,gx,gy,gz
509621.312000,-0.99,-0.111,-0.071,-4.79,0.64,-1.22
509621.359000,-0.987,-0.116,-0.069,-3.33,0.0,-0.55
509621.406000,-0.987,-0.115,-0.069,-1.65,-0.67,-1.07
509621.453000,-0.984,-0.116,-0.073,1.53,-1.89,-0.46
509621.500000,-0.98,-0.119,-0.077,-0.73,-0.4,-0.18
509621.546000,-0.993,-0.119,-0.07,-1.46,1.07,1.65
509621.593000,-0.999,-0.13,-0.065,-5.01,1.34,2.14
509621.640000,-0.986,-0.146,-0.066,-3.63,-1.13,0.43
509621.687000,-0.983,-0.132,-0.075,-0.85,-0.49,-1.68
509621.734000,-0.988,-0.116,-0.071,-1.71,0.92,-1.1
509621.781000,-0.993,-0.119,-0.068,-1.92,-0.15,-1.07
509621.828000,-0.991,-0.115,-0.083,1.68,-0.61,-0.52
509621.875000,-0.986,-0.118,-0.078,1.28,1.22,0.34
509621.921000,-0.981,-0.127,-0.076,2.75,0.82,0.58
509621.968000,-0.988,-0.129,-0.07,2.56,1.89,0.95
509622.015000,-0.99,-0.127,-0.06,2.66,1.53,-0.12
509622.062000,-0.99,-0.125,-0.062,0.92,0.21,-0.64
509622.109000,-0.986,-0.124,-0.067,1.01,-0.03,-0.27
509622.156000,-0.986,-0.126,-0.073,0.06,0.34,0.06
509622.203000,-0.989,-0.126,-0.077,-0.27,0.18,-0.09
509622.250000,-0.992,-0.126,-0.077,-0.06,0.85,-0.09
509622.296000,-0.986,-0.126,-0.075,-0.18,0.4,-0.12
509622.343000,-0.988,-0.13,-0.073,-1.16,1.74,-0.21
509622.390000,-0.99,-0.124,-0.067,-0.49,1.77,-0.67
509622.437000,-0.988,-0.12,-0.067,2.44,0.92,-0.79
509622.484000,-0.932,-0.013,-0.079,4.97,-2.11,-2.04
509622.531000,-0.941,0.322,-0.541,17.88,-32.17,45.23
509622.578000,-1.03,-0.265,-0.29,-55.7,88.81,140.57
509622.625000,-1.132,-0.283,0.182,-21.79,66.65,-36.04
509622.671000,-1.095,0.136,-0.01,116.43,-16.11,-32.23
509622.718000,-0.928,0.159,-0.175,102.66,-33.57,13.52
509622.765000,-0.903,0.063,-0.109,-6.01,37.63,34.0
509622.812000,-1.052,0.022,0.011,-66.62,44.56,45.66
509622.859000,-1.049,-0.082,0.009,-53.41,11.99,33.66
509622.906000,-1.007,-0.078,-0.071,-23.83,-19.5,10.07
509622.953000,-1.0,0.026,-0.213,-18.95,-28.17,-4.52
509623.000000,-0.991,0.027,-0.261,-30.27,-19.56,-4.61
509623.046000,-0.98,0.065,-0.274,-35.71,-8.12,-12.79
509623.093000,-0.965,0.056,-0.277,-24.96,7.05,-6.1
509623.140000,-0.97,-0.009,-0.165,-19.75,28.99,-10.28
509623.203000,-1.027,-0.075,-0.055,-20.75,31.4,-24.26
509623.250000,-1.076,-0.133,-0.052,-40.83,30.3,-39.55
509623.296000,-1.304,-0.634,0.078,-144.35,22.06,-110.02
509623.343000,-1.742,-1.024,-0.155,56.15,-74.53,-188.24
509623.390000,-1.96,-0.797,-0.328,118.53,-92.59,-283.18
509623.437000,-1.659,-0.688,-0.246,97.9,-137.24,-311.66
509623.484000,-0.858,-0.008,-0.383,70.04,-163.52,-303.54
509623.531000,-0.192,0.704,-0.555,65.86,-192.18,-281.04
509623.578000,0.158,0.729,-1.171,169.87,56.95,31.71
509623.625000,-0.754,0.339,-0.248,-42.57,392.32,73.89
509623.671000,-1.844,-0.091,0.278,-126.87,437.21,178.2
509623.718000,-1.99,-0.739,0.614,-202.52,128.45,224.71
509623.765000,-1.257,-0.944,0.36,173.89,-122.56,172.64
509623.812000,-0.78,-0.372,-0.327,34.09,-232.18,78.92
509623.875000,-0.704,-0.556,-0.242,23.19,13.28,158.21
509623.921000,-1.138,-0.57,-0.04,1.16,208.78,75.08
509623.968000,-1.376,-0.287,0.258,65.89,179.88,25.61
509624.015000,-1.234,-0.216,0.164,80.29,50.6,68.94
509624.062000,-1.047,-0.264,-0.062,-25.64,-49.32,56.34
509624.109000,-0.997,-0.168,-0.167,-92.62,-71.47,-5.77
509624.156000,-0.929,-0.156,-0.182,-106.42,-30.37,3.17
509624.203000,-0.954,-0.182,-0.144,-70.25,-1.13,4.21
509624.250000,-1.002,-0.151,-0.157,-52.34,7.84,7.45
509624.296000,-1.027,-0.156,-0.188,-62.75,2.29,2.66
509624.343000,-1.01,-0.138,-0.211,-58.81,-0.98,-10.56
509624.390000,-0.984,-0.113,-0.191,-29.27,8.61,-16.57
509624.437000,-0.97,-0.053,-0.13,5.04,13.76,-15.44
509624.484000,-0.978,-0.019,-0.136,10.71,7.97,-6.96
509624.531000,-0.979,-0.032,-0.136,-3.63,5.07,-4.94
509624.578000,-0.993,-0.019,-0.133,2.11,-0.52,-6.93
509624.625000,-0.984,-0.027,-0.157,10.62,-3.27,-0.15
509624.671000,-0.979,-0.034,-0.158,15.66,-2.78,4.85
509624.718000,-0.979,-0.06,-0.151,18.25,-0.58,11.75
509624.765000,-0.983,-0.103,-0.122,28.69,-2.17,11.84
509624.812000,-0.99,-0.11,-0.129,31.8,-1.65,12.36
509624.859000,-0.994,-0.124,-0.12,10.71,4.43,8.64
509624.906000,-1.001,-0.132,-0.112,-0.18,2.35,4.33
509624.953000,-0.983,-0.123,-0.14,-5.1,2.93,-1.4
509625.000000,-0.983,-0.093,-0.137,-8.55,5.07,-4.55
509625.046000,-0.982,-0.076,-0.144,-8.48,3.69,-3.54
509625.109000,-0.98,-0.071,-0.146,-7.05,3.02,-2.81
509625.156000,-0.977,-0.057,-0.151,-7.08,3.85,-0.85
509625.203000,-0.977,-0.05,-0.154,-9.43,4.91,-0.21
509625.250000,-0.987,-0.05,-0.155,-12.45,3.72,-0.31
509625.296000,-0.98,-0.074,-0.15,-4.12,-0.31,0.06
509625.343000,-0.975,-0.081,-0.153,9.43,-1.65,2.29
509625.390000,-0.98,-0.074,-0.141,6.16,0.03,0.31
509625.437000,-0.982,-0.069,-0.148,0.89,-2.41,0.7
509625.484000,-0.987,-0.07,-0.16,-4.09,-0.64,0.34
509625.531000,-0.986,-0.077,-0.149,0.55,-1.04,2.26
509625.578000,-0.975,-0.109,-0.143,3.75,-2.87,0.43
509625.625000,-0.989,-0.084,-0.145,5.65,-1.43,-2.29
509625.671000,-0.991,-0.058,-0.15,-11.17,0.82,-2.44
509625.718000,-0.98,-0.068,-0.163,-13.06,-0.37,-1.68
509625.765000,-0.975,-0.081,-0.149,-2.44,0.79,0.12
509625.812000,-0.988,-0.077,-0.151,-5.37,0.4,-0.37
509625.859000,-0.99,-0.078,-0.158,-12.73,2.38,-1.43
509625.906000,-0.976,-0.071,-0.148,-6.26,-0.21,-2.2
509625.953000,-0.974,-0.052,-0.161,-1.07,0.67,2.29
509626.000000,-0.993,-0.063,-0.145,-8.27,2.41,3.42
509626.046000,-0.972,-0.084,-0.143,-7.26,0.09,3.54
509626.093000,-0.987,-0.058,-0.148,-3.36,1.59,1.07
509626.140000,-0.991,-0.064,-0.158,-9.4,0.15,4.15
509626.187000,-0.988,-0.086,-0.165,-10.53,-0.61,-0.64
509626.234000,-0.987,-0.072,-0.169,-4.06,1.62,-7.11
509626.281000,-0.991,-0.065,-0.157,4.27,0.89,-9.64
509626.343000,-0.972,-0.06,-0.151,6.13,0.03,-5.55
509626.390000,-0.979,-0.036,-0.148,5.95,-0.31,-5.07
509626.437000,-0.98,-0.046,-0.151,-5.37,-1.62,-1.31
509626.484000,-0.985,-0.059,-0.176,-4.58,-0.12,2.35
509626.531000,-0.985,-0.073,-0.159,-0.58,2.44,1.19
509626.578000,-0.971,-0.075,-0.165,9.8,-0.64,3.02
509626.625000,-0.976,-0.083,-0.154,7.17,3.81,3.45
509626.671000,-0.985,-0.086,-0.148,4.58,2.53,1.46
509626.718000,-0.987,-0.076,-0.152,3.85,3.36,1.1
509626.765000,-0.976,-0.07,-0.149,1.43,2.72,1.92
509626.812000,-0.975,-0.068,-0.163,0.55,1.77,3.57
509626.859000,-0.983,-0.056,-0.175,-4.39,6.38,6.16
509626.906000,-0.968,-0.016,-0.215,-17.3,14.8,16.36
509626.953000,-0.97,-0.045,-0.178,-24.02,24.45,19.53
509627.000000,-0.98,-0.04,-0.19,-8.79,14.47,17.49
509627.046000,-0.981,-0.046,-0.183,-9.64,10.96,9.8
509627.093000,-0.983,-0.041,-0.179,-5.31,3.81,3.6
509627.140000,-0.984,-0.027,-0.209,-1.83,-2.96,-1.46
509627.187000,-0.975,-0.013,-0.228,-3.05,-3.05,-4.94
509627.234000,-0.968,0.005,-0.215,-2.53,0.24,-4.58
509627.281000,-0.964,0.019,-0.219,-6.62,2.56,0.92
509627.328000,-0.959,0.014,-0.199,-11.41,8.18,5.28
509627.390000,-0.985,0.014,-0.201,-4.67,3.08,8.03
509627.437000,-0.977,0.016,-0.225,-3.81,-0.09,2.72
509627.484000,-0.972,0.027,-0.227,-0.43,-0.98,2.17
509627.531000,-0.963,0.009,-0.232,3.05,0.79,7.69
509627.593000,-0.974,-0.011,-0.222,-5.8,3.63,6.04
509627.640000,-0.98,-0.022,-0.217,-6.78,3.11,2.93
509627.687000,-0.973,-0.014,-0.217,-1.4,0.49,-0.52
509627.734000,-0.965,-0.007,-0.221,0.15,-0.03,-2.47
509627.781000,-0.97,-0.002,-0.221,0.12,-0.06,-3.97
509627.828000,-0.973,0.008,-0.226,0.98,-1.16,-5.22
509627.875000,-0.965,0.014,-0.23,0.49,-0.64,-6.38
509627.921000,-0.964,0.019,-0.229,1.56,0.06,-5.46
509627.968000,-0.962,0.02,-0.221,1.53,1.22,-3.6
509628.015000,-0.967,0.006,-0.206,1.74,0.27,-1.01
509628.062000,-0.972,0.005,-0.224,-1.37,-0.76,-2.5
509628.109000,-0.976,0.011,-0.224,-0.98,0.79,-2.38
509628.156000,-0.967,0.007,-0.232,-1.16,-0.89,-1.65
509628.203000,-0.966,0.002,-0.23,1.53,1.43,-0.58
509628.250000,-0.969,-0.01,-0.204,3.02,0.85,-0.31
509628.296000,-0.971,-0.013,-0.206,5.04,-1.4,-0.4
509628.343000,-0.968,-0.007,-0.214,3.3,-1.46,-2.56
509628.390000,-0.968,0.003,-0.226,1.77,-2.04,-2.23
509628.437000,-0.971,-0.007,-0.246,-0.76,0.46,-1.43
509628.484000,-0.978,-0.009,-0.228,5.4,3.6,-1.25
509628.531000,-0.97,-0.005,-0.205,8.39,2.59,-1.31
509628.578000,-0.966,-0.004,-0.195,8.67,-0.06,-0.18
509628.625000,-0.973,-0.01,-0.205,8.33,-2.17,1.19
509628.671000,-0.971,-0.022,-0.223,7.54,-2.93,0.31
509628.718000,-0.968,-0.012,-0.225,8.85,-1.22,-0.79
509628.765000,-0.964,-0.007,-0.219,9.92,-0.21,1.1
509628.812000,-0.969,-0.003,-0.205,8.67,1.53,3.78
509628.859000,-0.973,-0.015,-0.192,5.28,0.64,4.79
509628.906000,-0.975,-0.017,-0.198,3.69,-2.44,4.76
509628.953000,-0.971,-0.027,-0.21,2.78,-2.47,5.07
509629.000000,-0.972,-0.039,-0.211,1.95,-1.83,3.63
509629.046000,-0.981,-0.031,-0.211,1.65,-1.13,2.08
509629.093000,-0.978,-0.028,-0.209,0.73,-0.31,1.5
509629.140000,-0.966,-0.024,-0.194,-1.56,0.06,-0.12
509629.187000,-0.969,-0.013,-0.198,-2.87,-0.82,0.89
509629.234000,-0.973,-0.028,-0.197,-4.58,0.03,0.15
509629.281000,-0.981,-0.026,-0.197,-1.56,0.24,-4.36
509629.328000,-0.972,-0.019,-0.203,-2.81,-0.92,-4.12
509629.375000,-0.97,-0.052,-0.22,1.37,2.66,-9.89
509629.421000,-0.979,-0.041,-0.213,9.06,5.62,-14.65
509629.468000,-0.979,-0.047,-0.218,7.93,4.97,-16.91
509629.515000,-0.98,-0.043,-0.209,8.76,5.83,-16.33
509629.562000,-0.97,-0.032,-0.22,7.48,3.33,-11.51
509629.609000,-0.969,-0.034,-0.226,1.95,2.5,-2.9
509629.656000,-0.972,-0.053,-0.214,0.43,1.07,2.9
509629.703000,-0.974,-0.062,-0.215,0.89,-1.62,6.1
509629.750000,-0.977,-0.001,-0.269,-8.48,0.46,12.73
509629.796000,-0.961,-0.036,-0.197,-26.55,13.03,25.91
509629.843000,-0.969,-0.036,-0.202,-8.91,2.47,22.83
509629.890000,-0.975,-0.035,-0.211,-2.14,-3.11,10.38
509629.937000,-0.982,-0.032,-0.204,5.31,-4.15,3.02
509629.984000,-0.982,-0.02,-0.222,4.97,-7.57,-0.98
509630.031000,-0.969,-0.008,-0.241,2.84,-7.08,-3.23
509630.078000,-0.955,0.009,-0.239,0.21,-0.12,-1.98
509630.125000,-0.964,0.011,-0.226,-1.8,4.18,1.5
509630.171000,-0.97,-0.0,-0.218,-1.25,4.39,4.88
509630.218000,-0.979,-0.021,-0.199,3.39,2.01,6.13
509630.265000,-0.969,-0.035,-0.204,2.9,-0.82,4.88
509630.312000,-0.969,-0.034,-0.208,0.46,-0.24,1.5
509630.359000,-0.974,-0.033,-0.206,-0.82,0.37,0.03
509630.406000,-0.975,-0.026,-0.206,-2.87,-0.03,-2.62
509630.453000,-0.967,-0.009,-0.213,-3.11,-0.95,-3.88
509630.500000,-0.966,0.0,-0.218,-2.81,-0.24,-2.81
509630.562000,-0.967,-0.008,-0.222,-1.19,2.26,-1.13
509630.609000,-0.981,0.001,-0.207,-2.56,2.04,-1.43
509630.656000,-0.979,0.0,-0.2,-3.14,-0.52,-1.74
509630.703000,-0.965,0.006,-0.206,-3.97,-3.42,-1.25
509630.750000,-0.965,0.009,-0.216,-3.57,-3.51,0.98
509630.796000,-0.976,-0.019,-0.221,-5.68,-0.58,2.35
509630.843000,-0.98,-0.02,-0.22,-3.45,0.27,-0.06
509630.890000,-0.978,-0.01,-0.212,-0.24,1.8,-1.92
509630.937000,-0.976,0.002,-0.202,-0.85,2.32,-2.14
509630.984000,-0.971,0.004,-0.207,-2.29,0.24,-2.47
509631.031000,-0.973,0.011,-0.216,-1.01,0.79,-0.67
509631.078000,-0.979,0.001,-0.212,0.85,0.46,0.92
509631.125000,-0.971,-0.012,-0.214,2.69,0.27,1.04
509631.171000,-0.971,0.002,-0.207,3.51,1.28,0.85
509631.218000,-0.967,-0.002,-0.213,-2.56,1.07,2.69
509631.265000,-0.979,-0.008,-0.207,0.43,2.29,2.01
509631.312000,-0.973,-0.003,-0.207,1.1,-1.83,1.22
509631.359000,-0.963,0.004,-0.223,-0.73,-0.24,2.2
509631.406000,-0.972,-0.007,-0.218,-2.96,1.31,2.84
509631.453000,-0.976,-0.015,-0.216,-0.55,0.64,0.79
509631.500000,-0.974,-0.005,-0.212,0.37,0.89,-0.82
509631.546000,-0.972,-0.008,-0.213,-0.43,-0.06,-0.89
509631.593000,-0.977,-0.004,-0.217,2.59,0.4,-1.53
509631.640000,-0.971,0.002,-0.206,0.73,1.25,-1.8
509631.687000,-0.967,0.0,-0.207,0.73,-0.18,-0.92
509631.734000,-0.968,-0.02,-0.212,3.48,0.55,-0.43
509631.781000,-0.979,-0.005,-0.197,3.66,0.37,-1.62
509631.828000,-0.969,-0.005,-0.207,0.43,-2.29,-1.28
509631.875000,-0.97,0.003,-0.209,-0.34,-0.98,-0.92
509631.921000,-0.97,-0.003,-0.209,-2.59,-1.13,0.21
509631.968000,-0.973,-0.006,-0.206,-1.8,-0.95,0.76
509632.015000,-0.977,-0.015,-0.205,-1.25,-1.46,1.59
509632.062000,-0.976,-0.026,-0.204,2.56,-2.78,2.47
509632.109000,-0.966,-0.042,-0.205,5.07,-0.76,2.87
509632.156000,-0.98,-0.026,-0.204,-0.31,-0.03,1.43
509632.203000,-0.979,-0.017,-0.201,-12.73,2.26,-1.68
509632.250000,-0.973,-0.002,-0.193,-17.37,3.02,-3.66
509632.296000,-0.977,0.016,-0.201,-16.97,2.26,-3.14
509632.343000,-0.981,0.016,-0.202,-15.59,1.43,-2.75
509632.390000,-0.975,0.01,-0.208,-7.63,-0.92,-2.29
509632.437000,-0.971,0.009,-0.213,-2.5,-3.54,-0.85
509632.484000,-0.978,-0.001,-0.217,-2.47,-1.53,-0.24
509632.531000,-0.973,-0.014,-0.204,-3.45,0.98,-1.86
509632.578000,-0.975,0.003,-0.198,-4.15,1.4,-2.59
509632.625000,-0.972,0.002,-0.197,-5.8,0.85,-2.53
509632.687000,-0.981,0.007,-0.201,-0.31,0.4,-1.98
509632.734000,-0.986,-0.006,-0.192,2.81,-1.46,-2.38
509632.781000,-0.974,-0.003,-0.204,5.37,-3.88,-2.99
509632.828000,-0.991,-0.083,-0.225,9.95,1.56,-5.16
509632.875000,-1.257,-0.673,-0.208,26.64,43.34,-63.63
509632.921000,-1.631,-0.952,-0.225,17.4,82.92,-222.08
509632.968000,-1.607,-1.02,-0.63,57.41,22.74,-338.05
509633.015000,-1.292,-1.357,-0.718,26.31,101.32,-383.65
509633.062000,-0.955,-1.29,-0.734,38.85,77.52,-417.77
509633.109000,-0.577,-1.111,-0.956,39.74,153.51,-420.67
509633.156000,-0.513,-0.966,-0.84,11.29,231.24,-426.56
509633.203000,-0.343,-0.689,-0.769,15.32,287.64,-384.96
509633.250000,-0.227,-0.166,-0.238,-21.79,303.96,-339.34
509633.296000,-0.178,-0.068,0.192,-33.85,304.67,-239.39
509633.343000,0.009,-0.085,0.699,-20.02,215.0,-179.91
509633.390000,0.184,0.197,0.806,-35.43,102.94,-101.14
509633.437000,0.452,0.156,0.675,-13.79,8.12,-36.13
509633.484000,0.686,0.004,0.455,-25.12,-44.07,15.02
509633.531000,0.888,-0.157,0.293,-19.62,-28.02,15.32
509633.578000,0.922,-0.159,0.437,-17.52,1.4,14.1
509633.625000,0.866,-0.089,0.551,-14.13,-18.01,6.81
509633.671000,0.82,-0.034,0.563,-4.09,-34.46,21.7
509633.718000,0.934,-0.283,0.304,-20.75,-51.88,7.84
509633.765000,0.986,-0.259,0.261,-7.17,-20.63,-1.46
509633.812000,0.955,-0.094,0.324,-13.0,1.28,-11.51
509633.875000,0.914,-0.064,0.333,-21.06,6.78,-2.32
509633.921000,0.923,-0.253,0.294,-14.13,10.68,7.66
509633.968000,0.91,-0.239,0.374,-9.7,20.97,-4.82
509634.015000,0.899,-0.194,0.413,-1.07,21.58,-9.64
509634.062000,0.885,-0.17,0.427,1.95,22.34,-10.38
509634.109000,0.878,-0.16,0.429,5.62,21.06,-8.64
509634.156000,0.874,-0.136,0.432,1.04,18.86,-7.51
509634.203000,0.872,-0.114,0.425,4.39,18.25,-5.25
509634.250000,0.875,-0.114,0.446,-1.74,19.78,-5.43
509634.296000,0.873,-0.135,0.447,-1.19,19.93,-2.87
509634.343000,0.846,-0.102,0.512,-1.07,17.91,-4.73
509634.390000,0.845,-0.126,0.498,0.31,8.88,0.85
509634.437000,0.844,-0.151,0.516,-6.38,7.57,-1.89
509634.484000,0.843,-0.132,0.528,0.55,7.32,0.85
509634.531000,0.847,-0.137,0.527,-1.4,-1.13,-1.07
509634.578000,0.85,-0.134,0.494,1.95,-2.2,1.28
509634.640000,0.854,-0.133,0.485,-3.23,-3.2,1.53
509634.687000,0.851,-0.128,0.482,-1.83,-2.78,3.78
509634.734000,0.854,-0.155,0.493,-1.89,2.11,1.62
509634.781000,0.855,-0.136,0.496,-1.28,2.41,1.74
509634.828000,0.853,-0.158,0.5,-1.86,3.42,1.19
509634.875000,0.851,-0.15,0.507,-0.95,3.33,0.7
509634.921000,0.847,-0.134,0.502,-1.98,3.17,1.25
509634.968000,0.847,-0.142,0.51,-0.55,3.51,2.9
509635.015000,0.847,-0.172,0.493,0.0,2.93,0.61
509635.062000,0.843,-0.135,0.507,0.98,3.33,-2.2
509635.109000,0.839,-0.142,0.511,-0.79,2.32,1.25
509635.156000,0.848,-0.162,0.507,1.13,1.8,-0.18
509635.203000,0.838,-0.129,0.517,0.27,2.53,-2.69
509635.250000,0.837,-0.134,0.509,0.76,1.4,0.12
509635.296000,0.84,-0.143,0.513,-1.19,1.37,2.17
509635.343000,0.839,-0.146,0.511,-3.69,2.14,0.67
509635.390000,0.833,-0.145,0.527,-0.58,3.54,1.13
509635.437000,0.829,-0.152,0.526,0.18,-0.98,3.08
509635.484000,0.845,-0.163,0.504,-0.79,-2.11,1.16
509635.531000,0.843,-0.148,0.513,-1.53,-0.18,-1.53
509635.578000,0.841,-0.149,0.505,-0.64,1.31,-1.34
509635.625000,0.83,-0.136,0.513,-1.37,1.16,0.61
509635.671000,0.828,-0.151,0.517,-0.12,0.89,3.54
509635.718000,0.832,-0.167,0.501,-0.67,1.37,0.49
509635.765000,0.842,-0.158,0.51,-0.21,2.81,-2.84
509635.812000,0.844,-0.151,0.518,-0.85,4.06,-1.43
509635.859000,0.84,-0.136,0.528,-0.49,4.0,-1.13
509635.906000,0.847,-0.163,0.525,-1.31,1.13,-1.28
509635.953000,0.841,-0.124,0.516,-1.19,0.24,-3.69
509636.000000,0.842,-0.136,0.516,-3.39,1.83,-0.92
509636.046000,0.834,-0.159,0.513,-4.06,0.98,-1.4
509636.093000,0.824,-0.164,0.524,-0.82,1.31,-1.1
509636.140000,0.816,-0.139,0.535,-1.62,-3.14,-0.43
509636.187000,0.831,-0.174,0.527,0.27,-4.82,2.08
509636.234000,0.831,-0.177,0.528,3.63,-6.13,-0.49
509636.281000,0.797,-0.14,0.562,8.58,-8.06,2.11
509636.328000,0.766,-0.109,0.594,12.3,-14.53,3.97
509636.375000,0.675,-0.199,0.786,32.29,-20.94,35.83
509636.421000,0.651,-0.106,0.79,44.04,-27.07,24.93
509636.468000,0.54,0.046,1.203,83.71,2.5,69.61
509636.515000,0.624,0.255,1.241,27.86,-68.03,26.8
509636.562000,0.811,0.183,1.061,-3.14,-75.62,66.13
509636.625000,0.803,0.238,1.118,-49.41,-41.14,24.75
509636.671000,0.25,0.165,0.396,-155.98,-204.99,75.84
509636.718000,-0.143,-0.237,-0.981,-214.24,-280.31,30.37
509636.765000,0.732,-0.08,-3.904,-297.19,-360.94,-96.16
509636.812000,0.926,-1.428,-1.188,41.99,33.54,211.43
509636.859000,0.458,-0.423,-0.696,58.81,65.16,-127.48
509636.921000,0.674,0.353,-0.17,16.69,-9.34,-32.11
509636.968000,0.941,-0.049,-0.529,-12.54,-60.24,11.41
509637.015000,0.964,-0.178,-0.668,-22.28,-43.95,19.5
509637.062000,0.917,-0.361,-0.661,-2.11,-2.56,3.33
509637.109000,0.883,-0.153,-0.562,5.8,12.57,-30.88
509637.171000,0.847,-0.145,-0.491,4.0,10.44,7.39
509637.218000,0.83,-0.264,-0.499,-1.74,4.91,-5.92
509637.265000,0.831,-0.261,-0.489,1.01,8.06,-5.1
509637.312000,0.837,-0.262,-0.488,5.92,14.98,-2.75
509637.359000,0.808,-0.22,-0.443,8.42,13.61,-1.56
509637.406000,0.82,-0.232,-0.431,8.76,8.36,-2.01
509637.453000,0.821,-0.218,-0.444,4.36,5.98,-9.77
509637.500000,0.829,-0.178,-0.398,4.33,6.62,-4.79
509637.546000,0.847,-0.189,-0.407,1.19,0.09,0.85
509637.593000,0.849,-0.193,-0.427,-2.53,-0.34,2.32
509637.640000,0.857,-0.232,-0.445,-4.24,-1.1,3.39
509637.687000,0.851,-0.235,-0.444,2.29,3.91,1.34
509637.734000,0.851,-0.223,-0.412,2.81,3.81,2.35
509637.781000,0.839,-0.211,-0.422,3.69,2.81,2.62
509637.828000,0.841,-0.223,-0.418,3.85,1.56,4.3
509637.875000,0.84,-0.239,-0.407,9.98,5.25,11.14
509637.937000,0.852,-0.255,-0.404,-1.4,-0.27,-2.78
509637.984000,0.868,-0.234,-0.422,-0.61,-0.12,-1.16
509638.031000,0.857,-0.264,-0.437,1.86,-1.53,5.95
509638.078000,0.859,-0.24,-0.409,-1.01,0.43,-8.76
509638.125000,0.857,-0.186,-0.42,-0.06,-1.77,2.75
509638.171000,0.851,-0.231,-0.411,-1.46,-1.68,6.5
509638.218000,0.854,-0.244,-0.429,-4.0,-2.08,0.85
509638.265000,0.856,-0.24,-0.44,2.59,0.46,2.81
509638.312000,0.858,-0.245,-0.424,4.36,4.46,-0.7
509638.359000,0.868,-0.258,-0.417,-1.1,3.11,0.89
509638.406000,0.86,-0.249,-0.415,-3.27,1.83,-1.13
509638.453000,0.861,-0.235,-0.421,-1.77,1.95,1.19
509638.500000,0.86,-0.245,-0.399,-2.93,1.01,4.06
509638.546000,0.844,-0.216,-0.397,0.4,-2.26,8.76
509638.593000,0.829,-0.244,-0.381,1.5,-6.04,23.13
509638.640000,0.846,-0.283,-0.424,-4.76,-5.25,9.19
509638.687000,0.847,-0.31,-0.439,-3.69,-1.98,5.71
509638.734000,0.838,-0.293,-0.443,-3.97,1.1,-1.71
509638.781000,0.841,-0.265,-0.421,-3.27,0.09,0.67
509638.828000,0.836,-0.228,-0.438,-0.58,1.4,10.22
509638.875000,0.842,-0.22,-0.435,6.44,8.03,26.4
509638.921000,0.832,-0.334,-0.407,4.61,5.83,28.99
509638.968000,0.821,-0.337,-0.411,-3.27,2.35,8.48
509639.015000,0.83,-0.373,-0.437,-6.5,-1.34,-1.43
509639.062000,0.857,-0.352,-0.43,-5.22,2.62,-10.83
509639.109000,0.867,-0.291,-0.423,-0.98,4.46,-4.94
509639.156000,0.867,-0.301,-0.396,-1.98,9.49,-1.83
509639.203000,0.873,-0.322,-0.436,-5.37,5.22,1.43
509639.250000,0.847,-0.363,-0.437,-0.49,7.97,2.23
509639.296000,0.814,-0.325,-0.395,0.82,11.51,-9.09
509639.359000,0.812,-0.276,-0.364,1.4,6.74,-5.31
509639.406000,0.822,-0.267,-0.36,-0.15,4.06,0.43
509639.453000,0.828,-0.294,-0.381,-1.98,2.14,3.02
509639.500000,0.83,-0.304,-0.379,-1.1,0.12,0.55
509639.546000,0.842,-0.316,-0.385,0.27,-0.89,-0.21
509639.593000,0.847,-0.292,-0.395,0.76,-1.37,-0.67
509639.640000,0.86,-0.304,-0.404,1.8,-0.98,1.4
509639.687000,0.869,-0.339,-0.438,6.87,3.11,0.37
509639.734000,0.876,-0.346,-0.492,16.51,8.91,0.52
509639.781000,0.883,-0.42,-0.642,49.96,21.33,22.22
509639.828000,0.731,-0.375,-0.648,104.16,55.76,35.74
509639.875000,0.542,-0.257,-0.553,231.48,45.93,179.66
509639.937000,0.663,-0.76,-0.284,152.53,45.47,59.88
509639.984000,0.611,-0.814,-0.503,160.41,-42.85,44.19
509640.031000,0.793,-1.088,-0.434,126.07,5.01,0.64
509640.078000,0.825,-0.688,-0.017,70.04,47.21,-113.59
509640.125000,0.863,-0.358,0.084,1.04,94.7,-163.37
509640.171000,0.71,-0.375,0.547,-42.57,166.05,-164.46
509640.218000,0.547,-0.428,0.879,-69.92,190.68,-213.57
509640.265000,0.282,-0.217,1.063,-58.47,197.85,-240.79
509640.312000,0.274,0.263,1.451,-49.84,46.85,-190.53
509640.359000,0.566,0.154,0.815,-23.38,-29.18,-38.97
509640.406000,0.867,-0.118,0.607,-17.85,12.42,-12.91
509640.453000,0.773,0.048,0.606,-38.42,27.04,-31.07
509640.500000,0.678,0.118,0.719,-51.67,27.77,-17.94
509640.546000,0.695,-0.104,0.749,-17.61,-4.61,9.09
509640.593000,0.766,-0.065,0.63,-2.2,-22.64,-9.25
509640.640000,0.79,0.013,0.631,-5.22,-22.95,-1.31
509640.687000,0.772,-0.006,0.683,3.23,-34.76,22.31
509640.734000,0.794,-0.125,0.512,-9.06,-45.56,-2.01
509640.781000,0.838,-0.053,0.517,6.81,-22.4,2.72
509640.828000,0.839,-0.014,0.501,-9.98,-15.2,0.52
509640.875000,0.848,-0.081,0.489,-4.52,-4.39,10.16
509640.921000,0.845,-0.103,0.535,-4.82,0.27,8.0
509640.968000,0.859,-0.081,0.524,-9.61,-2.69,0.12
509641.015000,0.859,-0.103,0.524,-1.92,-1.4,3.97
509641.062000,0.858,-0.115,0.5,2.04,2.84,3.63
509641.109000,0.843,-0.107,0.503,-3.94,3.81,-3.94
509641.156000,0.844,-0.092,0.503,-0.03,6.35,-0.43
509641.203000,0.837,-0.106,0.542,2.59,7.11,1.13
509641.250000,0.841,-0.102,0.531,0.85,6.65,-5.28
509641.296000,0.836,-0.075,0.527,3.69,11.38,-1.1
509641.343000,0.825,-0.08,0.552,3.94,12.51,-0.92
509641.390000,0.831,-0.083,0.546,5.16,11.93,-0.03
509641.437000,0.834,-0.063,0.552,3.08,7.26,0.09
509641.484000,0.808,-0.026,0.555,-2.23,0.43,6.29
509641.531000,0.796,0.006,0.524,-19.81,4.36,20.11
509641.578000,0.826,-0.184,0.535,-10.77,-6.26,24.11
509641.640000,0.856,-0.234,0.528,-3.94,-2.17,6.81
509641.687000,0.839,-0.103,0.539,-3.27,-0.55,-4.39
509641.734000,0.843,-0.131,0.542,-2.66,0.73,3.81
509641.781000,0.835,-0.176,0.548,-3.42,2.87,-6.29
509641.843000,0.813,-0.103,0.552,0.27,3.36,-3.17
509641.890000,0.807,-0.154,0.561,0.06,3.81,-2.96
509641.937000,0.798,-0.102,0.558,0.52,1.5,-2.32
509641.984000,0.808,-0.122,0.56,-2.23,-0.03,3.51
509642.031000,0.827,-0.166,0.539,-0.34,-1.74,1.83
509642.078000,0.831,-0.13,0.539,2.14,2.72,-1.19
509642.125000,0.819,-0.116,0.544,0.79,4.43,0.06
509642.171000,0.812,-0.124,0.566,-1.65,2.47,0.7
509642.218000,0.824,-0.152,0.554,1.22,1.28,1.46
509642.265000,0.822,-0.118,0.547,0.4,1.8,-2.41
509642.312000,0.823,-0.084,0.546,-1.01,0.92,1.31
509642.359000,0.839,-0.167,0.557,-0.4,-0.82,3.63
509642.406000,0.822,-0.161,0.566,-2.53,1.92,-3.75
509642.453000,0.812,-0.113,0.563,1.43,-1.25,-3.81
509642.500000,0.806,-0.104,0.563,-0.49,-2.69,-1.13
509642.546000,0.812,-0.145,0.552,0.92,-2.26,1.56
509642.593000,0.813,-0.119,0.554,0.73,-0.55,0.95
509642.640000,0.815,-0.112,0.549,1.34,-0.73,4.03
509642.687000,0.815,-0.13,0.565,0.64,-0.4,3.69
509642.734000,0.814,-0.118,0.552,4.55,-3.11,8.24
509642.781000,0.834,-0.186,0.541,3.3,-2.99,6.87
509642.828000,0.83,-0.121,0.526,1.92,2.69,-6.56
509642.875000,0.816,-0.11,0.535,3.14,5.71,2.81
509642.921000,0.809,-0.133,0.553,-2.47,1.98,0.79
509642.968000,0.814,-0.154,0.55,0.79,2.44,2.26
509643.015000,0.813,-0.103,0.549,-2.26,0.0,-1.43
509643.062000,0.835,-0.15,0.535,-1.68,-0.49,4.3
509643.109000,0.824,-0.143,0.545,-2.17,0.67,0.06
509643.156000,0.803,-0.148,0.567,-1.68,1.92,-1.31
509643.203000,0.71,-0.121,0.665,6.07,1.22,7.9
509643.250000,0.67,-0.126,0.739,12.85,-8.06,16.75
509643.296000,0.667,-0.102,0.745,17.58,-24.54,15.69
509643.343000,0.578,-0.182,0.899,53.96,-2.38,54.02
509643.390000,0.468,0.021,1.145,66.44,-0.67,51.91
509643.437000,0.468,-0.079,1.568,79.1,-3.17,125.13
509643.484000,0.669,-0.183,1.528,70.16,-51.36,104.13
509643.531000,0.727,0.266,1.045,-54.84,-62.72,-14.25
509643.578000,0.358,0.232,0.871,-89.75,-117.71,97.75
509643.625000,-0.026,-0.463,-0.731,-165.2,-291.09,81.33
509643.671000,0.627,-0.713,-2.404,-234.81,-371.07,-60.52
509643.718000,0.818,-0.449,-1.53,-113.1,-100.31,97.14
509643.765000,0.899,-1.125,-0.832,5.31,16.82,118.87
509643.812000,0.685,-0.236,-0.493,19.71,49.59,-92.56
509643.859000,0.736,-0.05,-0.136,-1.31,12.33,-53.32
509643.906000,0.956,-0.176,-0.473,-4.52,-24.72,-10.65
509643.953000,0.894,-0.319,-0.283,-17.33,-28.08,4.79
509644.000000,0.833,-0.386,-0.506,-5.86,-44.59,1.16
509644.046000,0.829,-0.315,-0.357,-9.09,-2.08,-24.87
509644.093000,0.831,-0.288,-0.41,-3.54,3.88,-6.53
509644.140000,0.822,-0.322,-0.361,2.9,8.06,-1.22
509644.187000,0.846,-0.313,-0.37,-1.1,-0.76,-2.59
509644.234000,0.839,-0.263,-0.392,0.0,1.89,1.07
509644.281000,0.861,-0.315,-0.391,1.31,-2.53,6.1
509644.328000,0.864,-0.294,-0.426,-2.17,-1.07,-4.88
509644.375000,0.85,-0.294,-0.372,0.4,-5.43,1.74
509644.421000,0.844,-0.32,-0.402,-1.65,-1.13,1.34
509644.468000,0.855,-0.316,-0.401,-1.59,-2.11,-4.82
509644.515000,0.863,-0.298,-0.389,-2.72,2.81,-2.29
509644.562000,0.836,-0.287,-0.391,1.43,1.46,1.68
509644.609000,0.855,-0.295,-0.394,-2.44,-0.55,3.17
509644.656000,0.853,-0.315,-0.412,0.15,0.61,3.81
509644.703000,0.839,-0.304,-0.385,1.07,2.62,-1.13
509644.750000,0.84,-0.277,-0.383,4.03,2.04,0.46
509644.796000,0.833,-0.276,-0.387,-2.26,-1.5,0.61
509644.843000,0.846,-0.309,-0.379,-0.03,-1.71,6.41
509644.890000,0.84,-0.313,-0.408,-1.65,-3.66,2.66
509644.937000,0.848,-0.303,-0.381,0.15,1.83,3.17
509644.984000,0.843,-0.323,-0.401,-0.12,0.4,3.45
509645.031000,0.837,-0.322,-0.411,2.47,1.46,3.27
509645.078000,0.857,-0.321,-0.385,2.47,3.91,-1.59
509645.125000,0.85,-0.325,-0.391,1.5,4.24,-2.44
509645.171000,0.859,-0.305,-0.402,-2.38,1.34,-8.06
509645.218000,0.854,-0.283,-0.403,0.4,3.45,3.02
509645.265000,0.847,-0.322,-0.38,0.85,1.13,4.82
509645.312000,0.846,-0.313,-0.388,-0.31,0.21,3.3
509645.359000,0.832,-0.308,-0.367,-2.26,-0.58,3.33
509645.406000,0.837,-0.331,-0.394,-0.98,-1.4,5.52
509645.453000,0.836,-0.333,-0.382,-2.29,1.1,-0.27
509645.500000,0.845,-0.318,-0.389,-2.87,-0.12,-0.67
509645.546000,0.852,-0.326,-0.386,-0.43,0.31,3.33
509645.593000,0.845,-0.333,-0.388,-0.4,-1.68,3.48
509645.640000,0.848,-0.334,-0.387,-1.37,1.46,0.61
509645.687000,0.848,-0.324,-0.388,-4.06,-2.04,-2.72
509645.734000,0.847,-0.341,-0.406,2.11,1.53,5.19
509645.781000,0.836,-0.328,-0.389,0.4,1.43,-1.07
509645.828000,0.839,-0.318,-0.387,0.12,2.29,-0.4
509645.875000,0.838,-0.312,-0.392,0.18,1.37,0.15
509645.921000,0.83,-0.323,-0.377,-0.52,0.49,0.34
509645.968000,0.842,-0.323,-0.388,-0.34,0.46,1.34
509646.015000,0.834,-0.325,-0.384,0.0,0.52,2.47
509646.062000,0.833,-0.326,-0.388,-2.35,-2.84,2.23
509646.109000,0.844,-0.332,-0.412,-1.43,-1.16,0.06
509646.156000,0.842,-0.33,-0.389,0.43,-1.19,2.72
509646.203000,0.84,-0.338,-0.407,3.51,0.37,3.48
509646.250000,0.831,-0.345,-0.398,1.77,1.98,-0.67
509646.296000,0.849,-0.37,-0.41,7.45,3.69,-2.59
509646.343000,0.847,-0.343,-0.386,4.03,6.96,-10.74
509646.390000,0.859,-0.311,-0.379,5.83,5.86,-5.68
509646.437000,0.848,-0.348,-0.409,8.39,7.84,-1.28
509646.484000,0.824,-0.417,-0.536,20.66,6.71,2.53
509646.531000,0.778,-0.499,-0.729,46.88,15.44,8.27
509646.578000,0.62,-0.511,-0.73,113.99,62.96,14.59
509646.625000,0.383,-0.464,-0.685,143.31,36.87,1.56
509646.671000,0.599,-0.285,-0.757,138.58,56.67,-25.42
509646.718000,0.716,-0.172,-0.573,143.28,54.72,6.44
509646.765000,1.073,-0.247,-0.339,110.2,86.03,-2.84
509646.812000,0.977,-0.039,-0.038,14.95,116.31,-47.94
509646.859000,1.034,-0.13,0.261,0.4,129.89,-18.07
509646.906000,1.009,-0.382,0.51,-78.34,150.33,-2.08
509646.953000,0.875,-0.889,0.797,-146.03,152.71,-60.37
509647.000000,0.67,-0.905,0.853,-126.35,133.7,-111.09
509647.062000,0.421,-0.494,1.032,-72.85,110.69,-127.26
509647.109000,0.379,-0.406,1.037,-46.39,56.76,-87.19
509647.156000,0.462,-0.232,0.833,-11.41,14.53,-61.22
509647.203000,0.605,-0.081,0.759,-5.62,6.5,-31.98
509647.250000,0.729,-0.165,0.659,0.85,-3.05,-2.08
509647.296000,0.793,-0.215,0.619,6.23,-2.99,1.86
509647.343000,0.803,-0.195,0.593,15.75,-14.44,8.18
509647.390000,0.82,-0.169,0.531,18.56,-14.4,2.04
509647.437000,0.844,-0.167,0.486,14.16,-13.0,5.98
509647.500000,0.833,-0.161,0.479,11.14,0.4,8.33
509647.546000,0.767,-0.249,0.574,17.88,17.12,25.39
509647.593000,0.796,-0.283,0.586,13.43,-0.46,-1.98
509647.640000,0.814,-0.169,0.533,19.2,-4.67,13.95
509647.687000,0.822,-0.196,0.513,1.28,-4.82,-2.72
509647.734000,0.827,-0.214,0.516,9.28,1.19,7.75
509647.781000,0.803,-0.201,0.53,3.66,1.01,2.14
509647.828000,0.722,-0.217,0.579,22.86,5.49,32.38
509647.890000,0.785,-0.244,0.617,13.09,-4.12,6.65
509647.937000,0.859,-0.168,0.51,9.7,-9.67,12.33
509647.984000,0.867,-0.236,0.501,4.79,2.75,11.41
509648.031000,0.841,-0.252,0.518,6.65,8.0,2.2
509648.078000,0.81,-0.199,0.537,2.32,6.5,-3.97
509648.125000,0.797,-0.18,0.53,-2.62,1.22,-1.92
509648.171000,0.8,-0.229,0.516,-5.01,1.43,-0.18
509648.218000,0.801,-0.239,0.558,-4.85,5.55,-2.93
509648.265000,0.802,-0.228,0.581,-5.92,6.96,-7.17
509648.312000,0.793,-0.22,0.574,-2.69,5.77,-2.69
509648.359000,0.785,-0.209,0.577,-3.57,3.72,-2.87
509648.406000,0.773,-0.216,0.576,-2.93,1.28,-1.07
509648.453000,0.767,-0.215,0.584,-2.78,1.43,-2.08
509648.500000,0.764,-0.191,0.583,-5.07,1.37,-2.08
509648.546000,0.787,-0.271,0.564,-0.89,3.97,2.96
509648.593000,0.774,-0.203,0.579,-1.43,0.12,-0.43
509648.640000,0.769,-0.234,0.558,-0.27,0.4,6.13
509648.687000,0.78,-0.292,0.506,-2.08,-3.91,7.93
509648.734000,0.813,-0.228,0.506,-10.93,3.54,-13.21
509648.781000,0.783,-0.207,0.605,-7.45,11.87,-0.67
509648.828000,0.783,-0.238,0.653,-3.45,2.99,0.55
509648.875000,0.766,-0.246,0.644,4.61,-3.57,3.97
509648.921000,0.708,-0.177,0.655,15.41,-12.48,16.24
509648.968000,0.76,-0.146,0.546,17.88,-28.66,26.12
509649.015000,0.84,-0.293,0.509,-2.69,-27.77,10.44
509649.062000,0.826,-0.299,0.52,7.35,-8.24,12.45
509649.109000,0.755,-0.225,0.622,-1.31,-8.82,4.73
509649.156000,0.708,-0.368,0.748,31.37,-10.19,28.53
509649.203000,0.568,-0.089,1.042,45.69,-8.7,19.35
509649.250000,0.472,-0.029,1.454,90.18,-18.28,84.32
509649.296000,0.514,-0.25,1.635,108.71,-56.37,116.15
509649.343000,0.949,-0.087,1.27,60.49,-82.19,-21.94
509649.390000,0.729,0.409,1.373,-3.91,-5.4,-58.14
509649.437000,0.161,0.476,0.798,-109.78,-110.39,54.29
509649.484000,-0.402,-0.504,-1.465,-190.4,-272.07,101.05
509649.531000,0.741,-0.914,-3.255,-289.99,-474.87,-69.4
509649.578000,1.172,-0.776,-1.224,-97.87,-43.7,76.36
509649.625000,0.637,-0.869,-0.693,37.66,47.88,17.27
509649.671000,0.533,0.255,0.091,-24.72,-3.75,-107.61
509649.718000,0.922,-0.292,-0.556,-26.64,-68.67,42.82
509649.781000,0.904,-0.511,-0.326,-3.94,-9.13,-11.35
509649.828000,0.859,-0.245,-0.418,3.54,-3.54,-28.78
509649.890000,0.855,-0.307,-0.326,2.35,-0.98,1.86
509649.937000,0.874,-0.362,-0.365,1.13,-7.39,0.24
509649.984000,0.861,-0.339,-0.359,-1.25,1.16,-13.12
509650.031000,0.842,-0.279,-0.366,2.08,-5.25,-9.58
509650.078000,0.846,-0.299,-0.345,-1.31,-4.12,-2.78
509650.125000,0.88,-0.276,-0.383,-1.34,-5.65,-4.27
509650.171000,0.867,-0.3,-0.368,-1.31,2.47,-2.17
509650.218000,0.858,-0.287,-0.389,0.46,1.13,-1.68
509650.265000,0.862,-0.277,-0.343,-2.08,-1.1,-0.12
509650.312000,0.852,-0.308,-0.358,-3.81,-2.9,3.81
509650.359000,0.853,-0.352,-0.383,-0.98,-1.56,-0.24
509650.406000,0.85,-0.289,-0.358,-1.95,2.26,-5.77
509650.468000,0.857,-0.298,-0.367,-2.17,-1.95,3.36
509650.515000,0.865,-0.32,-0.372,-2.29,1.19,0.49
509650.562000,0.858,-0.284,-0.373,1.98,2.66,2.44
509650.609000,0.859,-0.292,-0.367,2.14,3.36,5.04
509650.656000,0.819,-0.266,-0.329,4.61,0.7,7.6
509650.703000,0.807,-0.202,-0.36,2.66,6.04,12.73
509650.750000,0.834,-0.307,-0.37,-19.99,-14.95,2.41
509650.796000,0.907,-0.436,-0.433,-7.69,-6.38,12.6
509650.843000,0.875,-0.407,-0.395,-3.42,0.09,-4.88
509650.890000,0.878,-0.324,-0.382,3.11,0.61,3.88
509650.937000,0.873,-0.324,-0.402,-0.58,-1.34,3.45
509650.984000,0.863,-0.302,-0.416,-1.77,-1.01,1.95
509651.031000,0.855,-0.336,-0.38,-3.75,3.78,0.92
509651.078000,0.834,-0.328,-0.4,-2.04,2.35,-0.43
509651.125000,0.833,-0.34,-0.375,0.73,3.42,2.81
509651.171000,0.829,-0.335,-0.354,-0.58,2.62,0.82
509651.218000,0.833,-0.361,-0.357,2.29,0.92,2.2
509651.281000,0.83,-0.306,-0.363,-0.12,0.09,-4.73
509651.328000,0.833,-0.319,-0.371,-2.14,-3.88,4.36
509651.375000,0.845,-0.366,-0.394,-2.14,-5.1,3.36
509651.437000,0.84,-0.354,-0.4,4.21,-0.85,-0.79
509651.484000,0.837,-0.331,-0.386,3.11,1.53,-1.59
509651.531000,0.847,-0.328,-0.394,2.11,-1.1,-1.77
509651.578000,0.862,-0.329,-0.406,3.36,0.21,-1.13
509651.625000,0.857,-0.309,-0.385,3.27,2.14,-1.71
509651.671000,0.848,-0.295,-0.381,-1.92,2.01,-0.43
509651.718000,0.843,-0.336,-0.389,-1.92,-0.46,2.87
509651.765000,0.845,-0.325,-0.399,-1.4,2.29,1.04
509651.812000,0.829,-0.329,-0.362,-1.25,1.86,3.85
509651.859000,0.82,-0.33,-0.371,-3.11,0.95,-0.18
509651.906000,0.836,-0.327,-0.374,-2.29,-3.23,3.17
509651.953000,0.845,-0.34,-0.398,1.28,-0.55,3.48
509652.000000,0.848,-0.36,-0.396,3.02,0.61,1.92
509652.046000,0.913,-0.492,-0.544,30.64,14.31,6.35
509652.093000,0.905,-0.541,-0.615,64.49,37.42,-0.92
509652.140000,0.745,-0.5,-0.838,120.91,63.51,2.38
509652.187000,0.668,-0.506,-0.996,166.69,99.03,-0.76
509652.234000,0.535,-0.322,-0.732,188.73,71.23,44.71
509652.281000,0.465,-0.24,-0.209,230.17,4.52,73.98
509652.328000,0.521,-0.017,0.39,199.5,-20.29,43.34
509652.375000,1.064,-0.077,-0.192,-36.81,-139.26,-21.21
509652.421000,1.042,-0.871,0.162,-45.2,52.46,33.75
509652.468000,1.156,-0.768,0.155,-43.24,97.9,-40.13
509652.515000,1.085,-0.415,0.287,-149.6,140.66,-97.6
509652.562000,0.894,-0.413,0.526,-101.17,164.92,-23.77
509652.609000,0.635,-0.543,0.693,-136.54,145.63,-51.55
509652.656000,0.645,-0.588,0.704,-89.91,111.82,-33.45
509652.703000,0.689,-0.559,0.665,-59.3,97.54,-53.04
509652.750000,0.715,-0.449,0.762,-6.2,84.81,-46.88
509652.796000,0.784,-0.33,0.709,31.22,47.73,-48.83
509652.843000,0.778,-0.367,0.637,32.87,32.56,-39.74
509652.890000,0.758,-0.331,0.56,28.29,16.94,-35.8
509652.937000,0.766,-0.192,0.478,4.52,2.62,-42.48
509652.984000,0.793,-0.154,0.393,6.44,0.76,-15.32
509653.031000,0.78,-0.237,0.482,-9.19,13.09,-6.78
509653.078000,0.784,-0.251,0.523,-6.93,13.18,-2.11
509653.125000,0.779,-0.223,0.566,-18.07,8.58,-13.82
509653.171000,0.784,-0.202,0.572,-12.02,8.33,-1.04
509653.218000,0.792,-0.252,0.582,-18.34,4.24,5.49
509653.265000,0.804,-0.281,0.555,-5.37,1.19,-3.51
509653.312000,0.795,-0.231,0.555,-5.55,4.79,-10.62
509653.359000,0.779,-0.2,0.563,-2.53,6.5,-4.43
509653.406000,0.783,-0.252,0.564,-5.31,2.56,-1.83
509653.453000,0.782,-0.239,0.573,-0.76,5.8,-4.43
509653.500000,0.783,-0.228,0.565,2.5,2.9,-2.41
509653.562000,0.789,-0.223,0.559,-1.01,2.75,-1.25
509653.609000,0.792,-0.246,0.553,3.72,0.73,1.31
509653.656000,0.797,-0.247,0.559,0.58,2.78,-2.5
509653.703000,0.794,-0.215,0.556,2.5,-0.06,-2.75
509653.750000,0.79,-0.216,0.562,-0.7,0.7,-1.43
509653.796000,0.793,-0.214,0.549,3.33,-2.26,-2.66
509653.843000,0.792,-0.18,0.542,0.09,-0.55,-1.4
509653.890000,0.8,-0.262,0.568,-2.56,-0.34,4.3
509653.937000,0.786,-0.215,0.568,-2.04,1.98,-2.29
509653.984000,0.783,-0.196,0.571,-3.85,-0.55,-0.92
509654.031000,0.794,-0.245,0.561,1.16,1.46,7.45
509654.078000,0.797,-0.247,0.568,-2.62,-1.62,-1.92
509654.140000,0.792,-0.217,0.549,-0.15,1.19,1.68
509654.187000,0.793,-0.244,0.539,-7.84,-0.12,1.59
509654.234000,0.782,-0.246,0.552,-2.2,3.57,2.08
509654.281000,0.775,-0.221,0.545,-6.59,1.16,-1.59
509654.328000,0.774,-0.237,0.558,-5.58,2.47,5.52
509654.375000,0.789,-0.272,0.567,-6.74,1.83,0.37
509654.421000,0.802,-0.253,0.578,-1.01,1.19,1.43
509654.468000,0.805,-0.24,0.601,1.56,4.12,2.2
509654.515000,0.836,-0.259,0.712,11.57,-5.83,-2.9
509654.562000,0.744,-0.189,0.816,28.05,-6.71,-13.58
509654.609000,0.264,-0.096,1.26,89.91,49.01,64.15
509654.656000,0.105,-0.089,1.687,117.83,24.11,99.43
509654.703000,0.255,-0.094,1.6,115.97,-66.38,120.06
509654.750000,0.744,-0.235,1.359,68.42,-96.38,75.35
509654.796000,0.725,0.029,1.096,-33.42,-72.42,-25.76
509654.843000,0.46,0.284,0.769,-109.5,-92.26,-20.87
509654.890000,-0.331,0.073,-0.774,-238.17,-350.69,40.5
509654.937000,0.115,-0.19,-3.3,-333.93,-502.24,-40.65
509654.984000,0.797,-0.584,-1.723,-115.36,-88.44,110.57
509655.031000,0.926,-1.361,-0.925,86.61,54.14,137.21
509655.078000,0.442,0.199,-0.092,0.46,27.74,-166.45
509655.140000,0.948,-0.112,-0.594,-9.28,-66.47,21.97
509655.187000,1.002,-0.382,-0.569,-8.0,-27.56,-3.91
509655.234000,0.923,-0.264,-0.521,-3.78,-9.25,-24.35
509655.281000,0.872,-0.206,-0.481,2.56,-2.78,-17.94
509655.328000,0.84,-0.231,-0.467,1.37,-2.84,11.08
509655.375000,0.869,-0.369,-0.474,-0.03,-0.58,1.74
509655.421000,0.843,-0.287,-0.503,4.06,6.1,-10.44
509655.468000,0.822,-0.257,-0.443,5.22,9.0,-7.05
509655.515000,0.815,-0.231,-0.412,5.58,3.3,5.98
509655.562000,0.823,-0.273,-0.432,5.07,2.75,4.27
509655.609000,0.821,-0.251,-0.421,-0.73,1.16,-0.61
509655.656000,0.825,-0.276,-0.442,0.82,0.52,1.83
509655.703000,0.82,-0.285,-0.432,0.98,3.51,2.53
509655.750000,0.826,-0.272,-0.425,-1.34,4.06,-3.39
509655.796000,0.84,-0.243,-0.437,-2.26,-0.09,-0.06
509655.843000,0.854,-0.284,-0.44,-3.2,4.15,2.44
509655.890000,0.836,-0.274,-0.438,-0.73,2.96,2.41
509655.937000,0.827,-0.294,-0.422,-1.31,2.93,1.28
509655.984000,0.826,-0.28,-0.421,-2.35,1.25,1.86
509656.031000,0.833,-0.287,-0.424,-1.65,1.37,1.89
509656.078000,0.827,-0.285,-0.419,-2.72,1.13,-0.27
509656.125000,0.845,-0.284,-0.449,-0.58,2.17,2.62
509656.171000,0.843,-0.298,-0.433,-0.27,3.81,3.23
509656.218000,0.841,-0.291,-0.424,-1.28,0.95,1.71
509656.265000,0.844,-0.312,-0.445,-0.98,7.23,-3.3
509656.312000,0.85,-0.274,-0.403,-5.58,11.44,-17.67
509656.359000,0.834,-0.222,-0.404,-2.38,6.16,-7.08
509656.406000,0.838,-0.265,-0.417,-2.17,0.4,7.78
509656.453000,0.852,-0.286,-0.398,-4.3,1.5,-2.87
509656.500000,0.843,-0.255,-0.426,-4.0,-1.5,-2.96
509656.546000,0.839,-0.259,-0.399,0.64,2.59,3.78
509656.593000,0.806,-0.281,-0.386,-0.98,-4.3,2.35
509656.640000,0.821,-0.264,-0.429,-5.65,-9.61,0.79
509656.687000,0.839,-0.319,-0.417,10.22,1.43,6.5
509656.734000,0.898,-0.395,-0.469,23.87,11.35,1.8
509656.781000,0.877,-0.302,-0.392,19.68,13.34,-12.91
509656.828000,0.875,-0.206,-0.375,12.76,6.07,-1.56
509656.875000,0.859,-0.246,-0.372,1.31,-0.4,6.5
509656.921000,0.863,-0.316,-0.409,8.39,-3.75,14.56
509656.968000,0.848,-0.343,-0.377,7.51,3.94,2.9
509657.015000,0.838,-0.266,-0.329,-0.55,-8.61,1.19
509657.062000,0.837,-0.3,-0.418,-3.05,-14.53,13.03
509657.109000,0.83,-0.306,-0.361,-7.26,-4.36,1.25
509657.156000,0.831,-0.325,-0.416,-1.74,0.67,-1.43
509657.203000,0.816,-0.344,-0.39,15.47,10.38,-6.35
509657.250000,0.864,-0.34,-0.391,23.35,19.68,-9.43
509657.296000,0.849,-0.299,-0.301,13.89,17.3,-16.82
509657.343000,0.85,-0.264,-0.342,5.62,4.67,-5.77
509657.390000,0.873,-0.297,-0.357,3.2,-0.21,2.29
509657.437000,0.866,-0.315,-0.372,2.99,-2.93,0.06
509657.484000,0.821,-0.292,-0.348,14.34,6.9,16.45
509657.531000,0.82,-0.349,-0.314,3.54,0.82,15.59
509657.578000,0.829,-0.328,-0.321,1.92,-2.04,1.98
509657.640000,0.881,-0.314,-0.42,-5.92,-9.95,-5.86
509657.687000,0.871,-0.383,-0.469,2.72,-3.63,7.81
509657.734000,0.847,-0.383,-0.422,5.25,4.94,-4.15
509657.781000,0.866,-0.32,-0.488,5.37,18.59,-12.79
509657.828000,0.698,-0.397,-0.262,24.54,31.62,7.75
509657.875000,0.956,-0.233,-0.208,-6.13,-9.98,-30.52
509657.921000,0.988,-0.292,-0.448,-7.84,-9.28,20.66
509657.968000,0.809,-0.499,-0.419,15.66,23.56,23.77
509658.015000,0.82,-0.336,-0.211,5.49,12.21,-19.07
509658.062000,0.9,-0.237,-0.279,-5.95,-3.72,-18.46
509658.109000,0.86,-0.313,-0.37,2.23,4.88,18.95
509658.156000,0.819,-0.403,-0.251,3.54,3.23,7.66
509658.218000,0.856,-0.273,-0.313,-5.83,-7.66,-10.74
509658.265000,0.827,-0.333,-0.414,8.91,0.82,16.27
509658.312000,0.754,-0.67,-0.765,63.69,10.53,33.97
509658.359000,0.638,-0.663,-1.03,147.5,43.18,29.63
509658.406000,0.332,-0.589,-1.137,162.51,-0.37,13.06
509658.453000,0.527,-0.243,-0.948,234.5,-59.08,-57.99
509658.500000,0.851,0.06,-0.591,54.26,-70.59,-87.98
509658.546000,1.19,-0.244,0.127,45.35,-22.28,-10.53
509658.593000,1.298,-0.505,0.295,46.91,-42.45,-16.72
509658.640000,1.139,-0.297,-0.071,36.59,-30.3,5.43
509658.687000,1.029,-0.312,0.11,-82.95,124.06,-20.51
509658.734000,0.878,-0.018,0.428,-88.72,143.99,-28.75
509658.781000,0.859,-0.211,0.537,-137.15,104.89,12.63
509658.828000,0.95,-0.666,0.389,-81.06,51.06,8.85
509658.875000,1.03,-0.562,0.079,-79.5,66.41,-78.89
509658.921000,1.043,-0.144,0.106,-58.08,67.11,-89.85
509658.968000,1.011,-0.07,0.136,-65.89,42.18,-33.66
509659.015000,0.912,-0.137,0.223,-44.53,42.66,-24.51
509659.062000,0.85,-0.173,0.359,-42.3,41.72,-20.94
509659.109000,0.853,-0.174,0.351,-23.38,12.73,-9.89
509659.156000,0.903,-0.107,0.268,-14.5,14.8,-8.91
509659.203000,0.928,-0.127,0.273,4.82,-0.03,12.91
509659.250000,0.972,-0.224,0.145,7.97,0.61,9.64
509659.296000,0.981,-0.254,0.184,13.58,-6.87,8.94
509659.343000,1.001,-0.21,0.075,4.64,-3.3,-7.6
509659.390000,0.986,-0.159,0.122,10.93,9.06,-3.6
509659.437000,0.977,-0.21,0.121,10.96,12.18,-3.57
509659.484000,0.947,-0.11,0.218,-5.01,16.36,-12.02
509659.531000,0.925,-0.153,0.278,-3.91,2.17,7.08
509659.578000,0.931,-0.168,0.275,-24.63,-11.57,-8.48
509659.625000,0.944,-0.154,0.219,-18.83,-20.81,0.37
509659.671000,0.949,-0.17,0.166,-28.93,-19.26,-4.88
509659.718000,0.961,-0.197,0.125,-16.02,-11.6,2.9
509659.765000,0.948,-0.175,0.099,-24.48,-1.4,-7.78
509659.812000,0.945,-0.179,0.13,-4.88,2.69,5.04
509659.859000,0.94,-0.156,0.133,-15.17,4.76,-0.18
509659.906000,0.956,-0.183,0.151,-7.32,-1.65,6.65
509659.953000,0.961,-0.222,0.136,-9.74,-0.27,2.44
509660.015000,0.991,-0.224,0.115,-3.36,4.46,-2.66
509660.062000,0.986,-0.22,0.108,-11.05,19.04,-9.86
509660.109000,0.955,-0.194,0.125,-6.62,19.75,-9.52
509660.156000,0.928,-0.187,0.103,-9.16,23.16,-11.29
509660.203000,0.925,-0.118,0.148,-8.06,40.04,-11.35
509660.250000,0.912,-0.087,0.202,-8.7,42.15,-6.78
509660.296000,0.911,-0.153,0.265,0.67,43.52,9.0
509660.343000,0.925,-0.191,0.315,-0.43,30.95,4.73
509660.390000,0.951,-0.139,0.289,-6.07,23.38,-2.75
509660.437000,1.0,-0.19,0.215,-10.44,25.97,-5.77
509660.484000,0.955,-0.22,0.313,-6.65,47.61,-4.46
509660.531000,0.892,-0.172,0.436,-25.94,31.31,-15.08
509660.578000,0.878,-0.161,0.441,-22.28,17.79,-12.05
509660.625000,0.851,-0.162,0.47,-15.99,18.04,-9.37
509660.671000,0.855,-0.063,0.461,-8.94,13.98,-9.55
509660.718000,0.889,-0.025,0.427,-13.12,26.15,-0.24
509660.781000,0.882,-0.22,0.507,-9.03,24.69,8.58
509660.843000,0.846,-0.25,0.54,2.56,3.27,-5.4
509660.890000,0.805,-0.104,0.53,6.53,8.85,-16.45
509660.937000,0.79,-0.089,0.55,22.49,10.62,3.39
509660.984000,0.75,-0.131,0.655,37.63,27.34,21.24
509661.031000,0.589,-0.085,0.893,58.66,66.56,32.87
509661.093000,0.521,-0.046,1.207,102.42,53.9,74.92
509661.140000,0.667,-0.165,0.97,106.78,10.44,84.78
509661.187000,0.366,0.038,1.299,96.44,82.03,101.72
509661.234000,0.136,0.145,1.988,58.23,66.87,125.74
509661.281000,-0.255,1.05,2.061,-86.18,-90.79,21.36
509661.328000,-0.932,0.073,-0.069,-242.01,-437.85,184.61
509661.375000,0.118,-1.293,-3.959,-445.66,-558.85,-101.63
509661.421000,1.652,-0.856,-1.553,-42.45,52.06,129.83
509661.468000,0.866,-1.474,-0.689,166.69,127.54,104.53
509661.515000,0.528,0.115,-0.229,62.99,4.79,-161.66
509661.562000,0.78,0.384,0.04,2.96,-43.28,-60.3
509661.609000,1.071,-0.15,-0.397,-29.57,-80.84,-24.69
509661.671000,0.866,-0.308,-0.274,-5.31,-18.8,24.11
509661.718000,0.868,-0.389,-0.347,5.71,-18.89,-1.89
509661.765000,0.894,-0.188,-0.289,-1.98,-12.15,-25.06
509661.812000,0.908,-0.235,-0.303,-0.24,-9.55,12.12
509661.859000,0.881,-0.322,-0.277,-5.52,-10.25,5.86
509661.906000,0.815,-0.267,-0.318,-9.98,-22.0,1.04
509661.953000,0.833,-0.265,-0.298,-11.93,-18.46,19.07
509662.000000,0.899,-0.309,-0.361,-28.47,-11.75,-5.52
509662.046000,0.934,-0.307,-0.45,-6.01,0.82,22.92
509662.093000,0.915,-0.393,-0.332,-2.56,9.64,25.06
509662.140000,0.903,-0.329,-0.403,15.02,-4.36,-0.79
509662.187000,0.878,-0.328,-0.42,13.64,14.31,2.14
509662.234000,0.851,-0.332,-0.307,8.97,13.28,4.03
509662.281000,0.847,-0.31,-0.314,4.39,11.47,2.93
509662.328000,0.878,-0.319,-0.276,2.87,4.58,6.59
509662.375000,0.921,-0.302,-0.301,-3.11,2.87,-4.39
509662.421000,0.899,-0.23,-0.312,-9.7,4.82,-7.93
509662.468000,0.852,-0.272,-0.32,-12.91,4.39,6.26
509662.515000,0.835,-0.366,-0.287,-13.64,1.8,14.1
509662.562000,0.857,-0.458,-0.312,-4.94,-1.04,16.36
509662.609000,0.86,-0.417,-0.296,-1.83,2.69,-5.89
509662.656000,0.856,-0.363,-0.288,0.37,2.84,-1.16
509662.703000,0.842,-0.379,-0.272,2.87,3.54,4.76
509662.750000,0.835,-0.358,-0.284,-0.89,-0.34,-2.14
509662.796000,0.815,-0.347,-0.32,-2.08,0.98,5.52
509662.843000,0.849,-0.338,-0.307,-10.96,5.86,-0.27
509662.890000,0.869,-0.316,-0.279,-10.38,2.99,2.87
509662.937000,0.889,-0.349,-0.31,-6.68,-0.92,6.04
509662.984000,0.907,-0.409,-0.317,-3.78,-1.16,0.0
509663.031000,0.876,-0.384,-0.356,-1.37,6.1,-5.62
509663.078000,0.859,-0.365,-0.295,3.88,0.31,2.04
509663.125000,0.834,-0.357,-0.326,-0.58,-17.67,0.21
509663.171000,0.841,-0.334,-0.333,-1.34,-7.69,-2.01
509663.218000,0.806,-0.28,-0.299,-5.13,-17.46,6.23
509663.265000,0.799,-0.268,-0.357,-1.43,-5.04,14.28
509663.312000,0.773,-0.297,-0.318,-10.83,-8.24,6.35
509663.359000,0.814,-0.328,-0.348,-10.83,-10.62,7.97
509663.406000,0.882,-0.373,-0.376,-10.25,-14.31,6.44
509663.453000,0.921,-0.375,-0.385,-9.37,-12.97,12.51
509663.500000,0.91,-0.409,-0.441,-7.48,-14.04,23.32
509663.546000,0.892,-0.461,-0.441,0.37,-4.33,21.18
509663.593000,0.839,-0.505,-0.455,-2.29,-2.08,3.42
509663.656000,0.787,-0.431,-0.389,1.37,11.6,-14.4
509663.718000,0.784,-0.38,-0.368,7.6,10.22,-5.04
509663.765000,0.78,-0.412,-0.377,7.78,16.88,-11.99
509663.812000,0.812,-0.379,-0.328,8.48,17.52,-16.11
509663.859000,0.858,-0.361,-0.312,2.41,3.91,-11.96
509663.906000,0.862,-0.343,-0.347,4.85,6.38,-3.17
509663.953000,0.848,-0.361,-0.336,1.74,0.73,2.93
509664.000000,0.836,-0.358,-0.354,3.63,1.95,-0.06
509664.046000,0.819,-0.351,-0.334,-0.27,3.75,-3.05
509664.093000,0.849,-0.342,-0.379,0.98,1.77,-4.39
509664.140000,0.834,-0.341,-0.334,3.63,4.33,5.89
509664.187000,0.851,-0.358,-0.319,0.31,1.53,2.08
509664.234000,0.815,-0.336,-0.347,-6.41,-2.84,-1.13
509664.281000,0.789,-0.379,-0.345,-0.18,3.85,14.77
509664.328000,0.802,-0.455,-0.308,-7.02,-5.4,1.5
509664.375000,0.848,-0.428,-0.32,-5.07,-5.95,-3.66
509664.437000,0.884,-0.377,-0.379,-2.32,-4.0,-2.93
509664.484000,0.877,-0.368,-0.373,5.92,4.91,0.95
509664.531000,0.862,-0.346,-0.35,1.59,0.31,-4.85
509664.578000,0.825,-0.372,-0.375,1.98,0.06,6.59
509664.640000,0.69,-0.455,-0.367,12.18,-3.23,12.18
509664.687000,0.662,-0.5,-0.258,33.08,11.41,15.17
509664.734000,0.832,-0.381,-0.281,19.41,-7.42,-17.58
509664.781000,0.878,-0.296,-0.278,17.55,-2.5,-5.01
509664.828000,0.92,-0.309,-0.311,2.9,-16.42,9.83
509664.875000,0.922,-0.379,-0.337,-10.96,-8.58,12.36
509664.921000,0.892,-0.467,-0.438,-13.34,-11.38,8.06
509664.968000,0.871,-0.497,-0.404,-6.07,2.59,3.11
509665.015000,0.819,-0.459,-0.394,0.37,4.27,0.37
509665.062000,0.817,-0.441,-0.375,7.08,8.94,-1.83
509665.109000,0.852,-0.464,-0.449,12.67,11.57,10.13
509665.156000,0.873,-0.576,-0.505,23.93,17.24,5.07
509665.203000,0.801,-0.607,-0.517,61.34,47.76,1.25
509665.250000,0.707,-0.583,-0.524,85.18,47.61,-7.54
509665.296000,0.581,-0.283,-0.595,122.04,7.45,9.19
509665.343000,0.178,-0.247,-0.306,224.74,24.23,104.37
509665.390000,0.446,-0.385,-0.197,200.75,-49.07,98.36
509665.437000,0.676,-0.45,-0.336,51.33,-66.13,-24.23
509665.500000,0.99,-0.683,-0.07,-1.53,-18.49,6.93
509665.546000,1.075,-0.939,0.257,50.17,14.31,83.13
509665.593000,1.0,-1.053,0.458,118.23,21.36,64.27
509665.640000,1.036,-1.084,0.346,223.98,114.57,62.17
509665.687000,0.655,-0.745,0.692,-37.02,107.15,-163.64
509665.734000,0.678,-0.401,0.433,-68.79,60.52,-154.48
509665.781000,0.635,-0.25,0.485,-84.93,63.42,-146.06
509665.828000,0.67,-0.113,0.444,-94.36,26.37,-96.59
509665.875000,0.696,-0.068,0.465,-125.86,22.92,-74.71
509665.921000,0.673,0.055,0.437,-89.27,5.1,-7.57
509665.968000,0.832,-0.808,0.322,-63.45,-17.0,56.95
509666.015000,0.912,-0.897,0.229,-38.97,3.54,11.72
509666.062000,0.94,-0.526,0.197,-45.29,32.75,-46.66
509666.109000,0.875,-0.371,0.214,-44.92,46.82,-43.55
509666.171000,0.822,-0.406,0.317,-15.32,33.3,-3.14
509666.218000,0.802,-0.452,0.344,-33.91,17.85,-17.0
509666.265000,0.825,-0.366,0.273,-30.18,9.52,-10.28
509666.312000,0.8,-0.194,0.219,-42.3,18.49,6.38
509666.359000,0.722,-0.409,0.374,-64.97,37.48,59.21
509666.406000,0.751,-0.755,0.33,-17.43,22.95,49.41
509666.453000,0.811,-0.716,0.356,-16.17,11.02,5.34
509666.500000,0.858,-0.613,0.27,3.51,12.42,3.14
509666.546000,0.829,-0.495,0.31,-1.98,25.18,-10.5
509666.593000,0.767,-0.51,0.336,4.7,8.36,-0.67
509666.640000,0.724,-0.545,0.317,-10.93,-2.14,2.78
509666.687000,0.719,-0.569,0.328,-17.21,6.04,8.03
509666.734000,0.757,-0.601,0.288,-4.15,-11.2,5.98
509666.796000,0.793,-0.597,0.272,10.59,-0.18,4.67
509666.859000,0.808,-0.57,0.265,3.27,-0.52,-0.49
509666.906000,0.776,-0.523,0.294,1.5,2.81,-4.0
509666.953000,0.768,-0.572,0.289,4.55,1.83,5.83
509667.000000,0.759,-0.615,0.276,10.38,6.01,5.92
509667.046000,0.767,-0.575,0.304,31.04,10.71,11.08
509667.093000,0.777,-0.524,0.323,9.55,15.05,1.83
509667.140000,0.761,-0.55,0.38,3.02,7.42,-2.44
509667.203000,0.767,-0.586,0.347,-1.68,5.77,-9.34
509667.250000,0.761,-0.574,0.338,1.77,7.29,-13.58
509667.296000,0.769,-0.549,0.344,-1.86,9.74,-18.68
509667.343000,0.763,-0.554,0.369,10.74,15.14,-10.9
509667.390000,0.77,-0.517,0.358,6.56,14.98,-20.84
509667.437000,0.757,-0.46,0.389,-0.7,17.82,-21.58
509667.484000,0.778,-0.475,0.422,2.14,17.52,-14.5
509667.531000,0.773,-0.459,0.455,8.55,14.28,-8.79
509667.578000,0.741,-0.444,0.444,2.5,9.86,-4.7
509667.625000,0.738,-0.445,0.453,-1.62,7.87,-5.1
509667.671000,0.752,-0.479,0.443,-0.43,-0.7,4.06
509667.718000,0.775,-0.481,0.422,-1.65,-4.03,0.85
509667.765000,0.792,-0.475,0.411,-2.01,-2.26,1.13
509667.812000,0.784,-0.46,0.398,-7.11,-0.82,-2.41
509667.859000,0.766,-0.498,0.411,-5.55,0.09,0.82
509667.906000,0.768,-0.484,0.41,-3.17,1.4,-1.34
509667.953000,0.771,-0.47,0.409,-6.07,1.22,-3.45
509668.000000,0.783,-0.475,0.402,-5.01,0.76,-2.62
509668.062000,0.779,-0.469,0.407,-6.23,3.11,-4.24
509668.109000,0.765,-0.46,0.428,-6.23,4.64,-3.39
509668.156000,0.758,-0.47,0.421,-3.78,3.78,-0.89
509668.203000,0.765,-0.476,0.434,-4.46,3.66,0.31
509668.250000,0.767,-0.485,0.424,-1.22,4.03,0.46
509668.296000,0.753,-0.468,0.434,1.04,3.48,0.49
509668.343000,0.754,-0.495,0.433,2.23,2.93,3.66
509668.390000,0.748,-0.514,0.451,2.56,-0.21,2.62
509668.437000,0.745,-0.45,0.44,6.71,-5.65,7.23
509668.500000,0.79,-0.474,0.372,-0.24,-9.46,8.24
509668.546000,0.809,-0.527,0.365,2.01,-0.15,8.21
509668.593000,0.784,-0.504,0.407,1.31,5.04,-0.67
509668.640000,0.777,-0.475,0.408,-2.56,4.61,-4.55
509668.687000,0.772,-0.511,0.413,-1.89,5.31,-2.2
509668.734000,0.768,-0.479,0.409,-3.66,13.98,-9.61
509668.781000,0.759,-0.475,0.449,1.53,13.28,-4.85
509668.828000,0.744,-0.452,0.452,-1.37,6.71,-4.52
509668.875000,0.752,-0.486,0.449,-2.47,8.09,-2.5
509668.921000,0.754,-0.471,0.459,0.55,7.08,-3.88
509668.968000,0.749,-0.465,0.471,1.1,4.61,-2.87
509669.015000,0.746,-0.46,0.453,1.83,2.5,-0.92
509669.062000,0.749,-0.465,0.455,-1.77,2.23,-0.09
509669.109000,0.754,-0.456,0.452,0.18,0.82,-0.85
509669.156000,0.753,-0.465,0.45,0.43,2.11,1.34
509669.203000,0.749,-0.476,0.448,-0.92,1.22,1.34
509669.250000,0.747,-0.464,0.457,0.79,2.62,1.22
509669.296000,0.745,-0.471,0.46,-0.18,3.57,1.71
509669.343000,0.755,-0.495,0.463,-0.43,1.28,1.28
509669.390000,0.756,-0.476,0.463,-0.15,3.39,-1.74
509669.437000,0.756,-0.471,0.458,-0.85,2.93,-0.12
509669.484000,0.752,-0.485,0.449,-2.23,1.56,-0.64
509669.531000,0.75,-0.48,0.465,-2.2,2.35,-2.44
509669.578000,0.746,-0.45,0.456,-2.29,1.65,-2.23
509669.625000,0.746,-0.47,0.46,-2.5,3.75,0.55
509669.671000,0.746,-0.495,0.472,-1.4,2.38,-0.27
509669.718000,0.754,-0.468,0.468,-3.97,1.07,-4.46
509669.765000,0.761,-0.464,0.469,-0.92,3.51,-1.28
509669.812000,0.749,-0.477,0.47,-2.69,2.53,-3.27
509669.859000,0.742,-0.474,0.469,-0.12,3.91,-2.04
509669.906000,0.747,-0.474,0.478,-0.12,2.29,-4.06
509669.953000,0.748,-0.463,0.47,0.46,1.28,-2.47
509670.000000,0.751,-0.447,0.473,-0.24,1.74,-2.78
509670.062000,0.745,-0.456,0.485,-2.08,1.4,-1.07
509670.109000,0.756,-0.465,0.483,1.19,0.92,-0.09
509670.156000,0.755,-0.465,0.461,-0.09,0.76,-0.89
509670.203000,0.754,-0.454,0.467,-0.12,1.07,-1.22
509670.250000,0.745,-0.455,0.473,0.31,0.64,0.52
509670.312000,0.75,-0.457,0.47,-0.64,1.5,-0.98
509670.359000,0.748,-0.482,0.485,2.08,-0.15,0.06
509670.406000,0.761,-0.428,0.48,0.95,-2.26,-3.97
509670.453000,0.769,-0.452,0.463,0.64,0.18,-1.07
509670.500000,0.752,-0.489,0.484,1.1,1.53,-1.56
509670.546000,0.727,-0.479,0.521,7.39,1.59,-6.23
509670.593000,0.705,-0.423,0.537,4.52,-7.87,-9.4
509670.640000,0.643,-0.385,0.62,14.04,-7.9,-3.39
509670.687000,0.5,-0.307,0.778,12.12,-6.04,1.95
509670.734000,0.195,-0.547,1.341,79.17,6.35,67.57
509670.781000,0.423,-0.392,1.309,103.85,-75.05,51.79
509670.828000,0.701,-0.311,0.982,91.98,-96.01,32.5
509670.875000,1.151,-0.218,0.817,58.44,-68.88,-51.91
509670.921000,0.827,0.032,1.199,-28.84,18.25,-21.85
509670.968000,0.303,-0.073,0.399,-115.63,-148.38,74.13
509671.015000,-0.296,-0.487,-0.753,-209.27,-320.29,68.51
509671.062000,0.603,-0.439,-3.36,-368.39,-490.4,-155.89
509671.109000,1.264,-0.924,-1.341,-120.46,-37.81,42.48
509671.156000,0.653,-1.131,-0.938,90.0,73.15,51.36
509671.203000,0.416,0.275,-0.33,49.53,48.59,-119.17
509671.250000,0.823,-0.016,-0.378,3.45,-35.46,13.92
509671.296000,0.892,-0.1,-0.457,-11.6,-22.03,-4.55
509671.343000,0.827,-0.227,-0.479,-4.49,-15.99,14.59
509671.406000,0.795,-0.276,-0.431,-2.69,3.11,-15.66
509671.453000,0.807,-0.216,-0.474,-5.89,-8.42,-3.94
509671.500000,0.855,-0.299,-0.493,-1.5,-5.4,3.66
509671.546000,0.875,-0.256,-0.464,-6.47,-0.4,-7.39
509671.593000,0.835,-0.25,-0.476,-1.98,2.99,1.77
509671.640000,0.828,-0.219,-0.462,-5.1,-0.4,1.04
509671.687000,0.791,-0.224,-0.447,-7.05,1.8,15.99
509671.734000,0.76,-0.267,-0.42,-9.25,-1.98,20.75
509671.781000,0.775,-0.323,-0.451,-19.78,-8.91,6.84
509671.828000,0.843,-0.406,-0.513,-7.08,-4.39,9.86
509671.875000,0.823,-0.433,-0.481,1.83,-3.42,4.03
509671.921000,0.828,-0.363,-0.488,6.74,-7.32,-17.61
509671.968000,0.843,-0.308,-0.49,1.37,3.81,-5.28
509672.015000,0.812,-0.383,-0.468,6.5,7.08,2.41
509672.062000,0.813,-0.352,-0.463,7.63,5.01,-11.23
509672.109000,0.789,-0.337,-0.433,11.99,7.32,-6.99
509672.156000,0.781,-0.304,-0.395,19.44,1.46,-9.61
509672.203000,0.76,-0.364,-0.379,46.57,-27.07,-0.09
509672.265000,0.817,-0.23,-0.518,5.28,-16.02,-36.5
509672.312000,0.82,-0.234,-0.526,15.56,4.24,3.85
509672.359000,0.805,-0.289,-0.456,2.23,2.81,0.76
509672.406000,0.812,-0.288,-0.467,6.41,2.99,0.46
509672.453000,0.834,-0.283,-0.459,7.17,3.57,-3.42
509672.500000,0.79,-0.207,-0.455,-2.53,6.71,-17.27
509672.546000,0.8,-0.244,-0.44,-6.41,-6.16,4.09
509672.593000,0.829,-0.353,-0.453,-9.55,-5.28,6.23
509672.640000,0.836,-0.423,-0.492,1.01,-7.93,10.5
509672.687000,0.823,-0.422,-0.478,9.8,-3.36,-1.68
509672.734000,0.805,-0.317,-0.439,7.11,-4.27,-13.21
509672.781000,0.81,-0.244,-0.443,4.46,-2.99,-10.04
509672.828000,0.807,-0.244,-0.475,4.49,-6.99,2.08
509672.875000,0.808,-0.269,-0.477,-2.11,-0.43,-5.95
509672.921000,0.812,-0.257,-0.498,-2.59,-1.86,-5.65
509672.968000,0.798,-0.278,-0.463,-2.2,-2.08,3.17
509673.015000,0.81,-0.354,-0.453,3.3,-16.21,8.42
509673.062000,0.797,-0.344,-0.505,3.66,-28.41,5.04
509673.109000,0.809,-0.319,-0.574,5.55,-8.42,-3.33
509673.156000,0.794,-0.298,-0.501,5.13,-1.77,-1.92
509673.203000,0.789,-0.301,-0.523,3.02,3.39,-2.47
509673.250000,0.778,-0.311,-0.492,6.74,3.85,-4.18
509673.296000,0.776,-0.263,-0.506,4.03,2.08,-6.9
509673.343000,0.792,-0.283,-0.489,7.26,5.49,1.62
509673.390000,0.795,-0.29,-0.503,4.67,2.41,-2.53
509673.437000,0.794,-0.32,-0.487,8.24,-6.26,5.49
509673.484000,0.84,-0.343,-0.561,7.97,0.79,4.61
509673.531000,0.836,-0.35,-0.508,10.16,9.43,-0.76
509673.578000,0.823,-0.339,-0.513,11.05,12.88,-4.09
509673.625000,0.8,-0.319,-0.48,14.44,19.14,-9.31
509673.671000,0.797,-0.276,-0.441,11.78,16.69,-8.12
509673.718000,0.769,-0.254,-0.391,4.58,10.59,-3.51
509673.765000,0.797,-0.328,-0.434,6.13,7.97,3.02
509673.812000,0.803,-0.412,-0.427,14.8,16.36,3.81
509673.859000,0.806,-0.463,-0.464,30.7,16.39,1.4
509673.906000,0.789,-0.538,-0.642,60.73,32.56,-0.76
509673.953000,0.66,-0.435,-0.677,106.72,54.2,-23.5
509674.000000,0.528,-0.088,-1.117,133.43,62.87,3.54
509674.046000,0.578,-0.073,-0.789,165.62,115.33,53.83
509674.093000,0.658,-0.299,-0.218,132.05,97.35,64.49
509674.140000,0.775,-0.656,0.281,46.66,104.16,40.53
509674.187000,0.91,-0.713,0.699,14.47,59.51,-47.24
509674.234000,0.947,-0.463,0.379,-51.33,-44.4,-71.93
509674.281000,0.975,-0.504,0.374,2.62,-16.08,-26.03
509674.328000,1.002,-0.457,0.338,-2.41,56.49,-54.78
509674.375000,1.032,-0.235,0.206,72.97,124.79,-23.87
509674.421000,0.889,-0.008,0.421,-102.79,129.22,-103.03
509674.468000,0.648,-0.288,0.702,-79.9,133.34,-15.84
509674.515000,0.56,-0.613,0.98,-61.28,111.21,-36.47
509674.562000,0.578,-0.229,0.857,-27.89,43.52,-61.49
509674.609000,0.751,0.037,0.553,-31.77,-6.68,-26.55
509674.656000,0.842,-0.181,0.512,-27.22,10.28,10.25
509674.703000,0.793,-0.469,0.631,-17.85,21.36,-7.39
509674.750000,0.766,-0.224,0.575,-3.78,7.42,-18.86
509674.796000,0.743,-0.175,0.529,0.0,8.97,-6.93
509674.843000,0.723,-0.191,0.574,30.82,19.75,42.85
509674.890000,0.752,-0.487,0.622,36.01,58.32,61.89
509674.953000,0.692,-0.491,0.704,31.34,34.7,14.13
509675.015000,0.731,-0.205,0.631,6.29,-3.75,-11.87
509675.078000,0.766,-0.411,0.561,-12.63,-4.18,-4.33
509675.125000,0.79,-0.379,0.568,-2.23,4.52,-16.54
509675.171000,0.777,-0.308,0.616,-8.39,12.12,-32.07
509675.234000,0.668,-0.291,0.728,12.15,18.98,-17.91
509675.296000,0.618,-0.218,0.685,-0.46,-12.15,-17.15
509675.343000,0.717,-0.214,0.56,-6.2,-17.85,-0.24
509675.390000,0.754,-0.284,0.535,-3.94,-7.63,9.25
509675.437000,0.749,-0.318,0.592,-6.56,4.06,-0.27
509675.484000,0.745,-0.308,0.605,-5.55,11.41,-4.39
509675.531000,0.768,-0.298,0.623,-10.16,1.01,-5.19
509675.578000,0.859,-0.311,0.582,-19.44,-2.93,-21.18
509675.625000,0.932,-0.367,0.521,-25.88,6.65,-39.83
509675.671000,0.798,-0.402,0.605,-12.45,38.3,-53.13
509675.718000,0.622,-0.209,0.757,-7.6,26.64,-62.11
509675.765000,0.642,-0.092,0.645,-12.15,4.15,-49.26
509675.812000,0.663,-0.145,0.633,1.16,8.12,-17.15
509675.859000,0.67,-0.225,0.674,-5.34,1.65,-16.08
509675.906000,0.692,-0.132,0.655,-6.5,3.3,-16.17
509675.953000,0.711,-0.08,0.671,-7.97,-0.98,-5.71
509676.000000,0.73,-0.161,0.655,-8.12,0.0,3.97
509676.046000,0.73,-0.18,0.701,-2.84,-3.81,2.41
509676.093000,0.73,-0.166,0.659,-2.78,-6.32,0.52
509676.140000,0.684,-0.123,0.67,-13.46,-12.85,-0.52
509676.187000,0.695,-0.197,0.674,-30.52,-25.48,-11.02
509676.234000,0.738,-0.15,0.648,-31.31,-38.36,-13.28
509676.281000,0.856,-0.237,0.522,-18.43,-38.39,-1.74
509676.328000,0.866,-0.245,0.497,-2.9,-24.14,-0.03
509676.375000,0.863,-0.261,0.437,-10.38,-11.84,-11.17
509676.421000,0.807,-0.14,0.507,-13.06,-1.07,-18.92
509676.468000,0.777,-0.202,0.524,-27.99,17.21,-24.81
509676.515000,0.804,-0.224,0.606,-26.46,10.32,-27.95
509676.562000,0.847,-0.131,0.501,-2.75,12.24,-3.94
509676.609000,0.821,-0.113,0.572,-7.63,10.86,1.71
509676.656000,0.794,-0.247,0.555,-5.8,3.36,6.68
509676.703000,0.783,-0.206,0.625,0.95,4.73,-0.76
509676.750000,0.803,-0.151,0.578,0.64,-2.84,0.61
509676.796000,0.826,-0.203,0.528,3.57,-0.46,6.65
509676.843000,0.804,-0.221,0.579,3.39,2.87,2.17
509676.906000,0.743,-0.169,0.636,10.71,1.68,5.95
509676.953000,0.699,-0.167,0.702,22.43,-5.74,12.45
509677.000000,0.604,-0.145,0.746,39.74,-12.09,28.66
509677.046000,0.453,-0.174,0.957,44.8,-33.17,37.48
509677.093000,0.357,-0.221,1.01,-14.4,-76.97,-40.89
509677.140000,0.339,-0.103,1.048,52.77,-93.45,10.01
509677.187000,0.699,-0.374,0.662,140.02,-103.43,95.71
509677.234000,1.242,-0.263,0.562,100.47,-104.28,42.15
509677.281000,1.327,-0.133,0.382,62.78,-49.32,34.24
509677.328000,0.822,0.01,0.667,-25.15,-40.07,70.59
509677.375000,0.608,-0.448,-0.197,-46.45,-137.06,90.85
509677.421000,0.734,-0.889,-0.711,-94.79,-256.05,72.94
509677.468000,0.836,-0.314,-0.909,-168.74,-185.03,-74.77
509677.515000,0.729,0.169,-1.233,-206.92,-215.58,-24.29
509677.562000,0.659,-0.344,-1.161,-114.51,-66.56,89.88
509677.609000,0.716,-0.74,-0.82,-19.47,-18.56,57.37
509677.656000,0.607,-0.316,-0.696,33.51,28.53,-31.98
509677.703000,0.693,-0.061,-0.524,14.07,4.3,-5.4
509677.750000,0.782,-0.226,-0.539,-4.09,7.69,-12.09
509677.796000,0.805,-0.116,-0.523,-11.29,7.02,-9.31
509677.843000,0.823,-0.229,-0.5,-2.41,7.02,4.58
509677.890000,0.8,-0.23,-0.508,-0.37,-2.72,-2.72
509677.937000,0.84,-0.204,-0.522,3.54,3.69,-0.09
509677.984000,0.828,-0.227,-0.515,-2.81,2.08,-0.67
509678.031000,0.817,-0.22,-0.51,-7.57,3.6,-4.7
509678.078000,0.839,-0.244,-0.509,-1.07,3.42,-0.55
509678.125000,0.825,-0.26,-0.503,3.14,6.32,0.64
509678.171000,0.813,-0.248,-0.474,1.68,9.16,-1.83
509678.218000,0.802,-0.214,-0.472,0.0,2.9,1.07
509678.265000,0.814,-0.235,-0.445,-2.84,3.14,4.49
509678.312000,0.824,-0.254,-0.49,-3.02,-0.95,3.05
509678.359000,0.785,-0.254,-0.461,1.5,2.96,3.72
509678.406000,0.791,-0.242,-0.447,6.68,0.64,6.99
509678.453000,0.823,-0.24,-0.454,1.98,0.21,-0.61
509678.500000,0.812,-0.219,-0.48,1.43,-1.62,5.31
509678.546000,0.838,-0.257,-0.483,-1.95,-3.6,7.11
509678.593000,0.834,-0.261,-0.508,-1.4,-0.37,5.34
509678.640000,0.829,-0.278,-0.508,0.52,5.46,4.43
509678.687000,0.819,-0.278,-0.475,-1.25,6.65,-2.53
509678.734000,0.825,-0.245,-0.467,-0.4,4.7,0.34
509678.781000,0.822,-0.279,-0.467,-1.71,1.56,0.4
509678.828000,0.815,-0.272,-0.468,-1.89,1.16,-4.15
509678.875000,0.809,-0.272,-0.458,-0.55,1.19,-2.38
509678.921000,0.783,-0.281,-0.458,3.23,-1.71,2.17
509678.968000,0.81,-0.279,-0.47,0.61,0.92,-8.18
509679.015000,0.822,-0.204,-0.45,-5.92,-6.38,-7.78
509679.062000,0.866,-0.198,-0.509,-3.51,-6.44,0.24
509679.109000,0.852,-0.23,-0.52,5.46,-4.49,9.25
509679.156000,0.827,-0.284,-0.521,2.66,1.43,7.23
509679.203000,0.784,-0.277,-0.498,1.62,6.68,0.34
509679.250000,0.754,-0.261,-0.458,6.81,5.74,6.87
509679.296000,0.808,-0.266,-0.435,2.08,4.61,-4.46
509679.343000,0.819,-0.273,-0.528,8.88,5.68,-3.27
509679.406000,0.818,-0.244,-0.435,7.84,11.6,-11.05
509679.453000,0.78,-0.271,-0.481,7.32,7.35,8.18
509679.500000,0.754,-0.356,-0.392,12.27,3.23,12.57
509679.546000,0.842,-0.302,-0.411,15.66,1.65,0.92
509679.609000,0.866,-0.247,-0.468,3.33,-7.9,-5.1
509679.656000,0.902,-0.275,-0.464,4.21,-6.1,8.18
509679.703000,0.874,-0.305,-0.51,0.43,-1.37,7.02
509679.750000,0.824,-0.283,-0.44,0.67,5.4,-0.67
509679.796000,0.798,-0.283,-0.451,2.17,3.14,10.9
509679.843000,0.763,-0.301,-0.44,4.67,6.93,12.33
509679.890000,0.798,-0.258,-0.419,2.23,0.24,-2.26
509679.937000,0.827,-0.29,-0.438,1.68,-5.16,11.75
509680.000000,0.835,-0.338,-0.456,1.19,1.04,5.68
509680.046000,0.854,-0.318,-0.463,-3.66,-1.01,3.2
509680.093000,0.835,-0.313,-0.456,-2.47,1.53,0.98
509680.140000,0.845,-0.312,-0.451,-2.87,-1.46,4.06
509680.187000,0.843,-0.378,-0.46,0.37,8.06,4.06
509680.234000,0.825,-0.345,-0.444,-2.01,5.68,-2.72
509680.281000,0.814,-0.352,-0.453,2.14,4.7,0.09
509680.328000,0.802,-0.328,-0.425,-0.4,5.34,-5.04
509680.375000,0.8,-0.302,-0.41,2.78,4.52,3.02
509680.421000,0.817,-0.344,-0.429,-0.21,3.69,0.95
509680.468000,0.812,-0.32,-0.409,-0.37,3.51,-1.04
509680.515000,0.841,-0.316,-0.439,2.38,3.94,3.78
509680.578000,0.846,-0.335,-0.423,-1.98,1.95,0.15
509680.625000,0.836,-0.348,-0.456,3.14,2.08,5.43
509680.671000,0.804,-0.36,-0.406,0.73,9.13,-3.94
509680.718000,0.795,-0.321,-0.414,4.85,2.84,3.94
509680.765000,0.796,-0.336,-0.39,1.28,2.69,-2.29
509680.812000,0.809,-0.324,-0.409,2.78,3.14,-0.18
509680.859000,0.83,-0.349,-0.386,0.89,-0.06,-0.27
509680.906000,0.853,-0.344,-0.406,-3.66,0.7,-3.57
509680.953000,0.855,-0.363,-0.442,-2.66,-1.07,-3.05
509681.000000,0.831,-0.366,-0.419,4.12,7.29,-2.93
509681.046000,0.832,-0.308,-0.39,3.3,6.53,-8.27
509681.093000,0.829,-0.284,-0.358,0.73,4.15,-1.01
509681.140000,0.833,-0.304,-0.379,-1.4,0.37,3.39
509681.187000,0.845,-0.332,-0.388,-3.72,1.1,-8.03
509681.234000,0.852,-0.287,-0.376,-1.34,1.28,1.98
509681.281000,0.87,-0.298,-0.391,-0.7,3.05,4.24
509681.343000,0.865,-0.344,-0.397,-1.43,1.19,4.0
509681.390000,0.836,-0.341,-0.392,0.4,5.98,-2.93
509681.437000,0.806,-0.318,-0.371,2.87,5.71,3.3
509681.484000,0.803,-0.341,-0.347,4.03,2.72,-0.49
509681.531000,0.805,-0.342,-0.36,11.6,-0.89,6.04
509681.578000,0.831,-0.321,-0.359,10.86,1.28,0.49
509681.625000,0.868,-0.323,-0.348,4.18,-3.23,4.61
509681.671000,0.86,-0.308,-0.362,-1.01,-3.2,3.14
509681.718000,0.861,-0.313,-0.37,-2.04,-6.32,14.28
509681.765000,0.857,-0.367,-0.401,-6.44,-5.83,9.25
509681.812000,0.839,-0.387,-0.399,-0.89,-0.85,10.13
509681.859000,0.83,-0.39,-0.394,-0.46,3.08,5.16
509681.906000,0.832,-0.382,-0.396,1.37,1.68,1.34
509681.968000,0.83,-0.39,-0.375,4.82,5.31,1.5
509682.015000,0.834,-0.355,-0.388,0.92,5.49,1.8
509682.062000,0.818,-0.389,-0.354,-0.52,6.23,5.46
509682.125000,0.788,-0.38,-0.355,4.46,3.75,1.68
509682.171000,0.79,-0.385,-0.375,6.07,1.43,2.96
509682.218000,0.823,-0.338,-0.354,3.94,-1.28,-3.02
509682.265000,0.855,-0.381,-0.377,6.47,-4.55,13.73
509682.312000,0.853,-0.442,-0.407,19.32,-4.33,27.56
509682.359000,0.837,-0.505,-0.347,13.18,3.75,18.95
509682.406000,0.839,-0.497,-0.369,10.41,6.16,-0.46
509682.453000,0.837,-0.403,-0.327,9.77,10.74,-11.72
509682.500000,0.838,-0.366,-0.314,6.35,7.08,-5.52
509682.546000,0.803,-0.391,-0.318,-0.67,5.28,-2.66
509682.593000,0.801,-0.434,-0.33,-0.27,1.5,0.09
509682.640000,0.805,-0.428,-0.306,-0.55,2.99,-3.08
509682.687000,0.823,-0.446,-0.327,8.3,3.42,5.74
509682.734000,0.829,-0.474,-0.339,10.62,7.02,6.44
509682.781000,0.854,-0.491,-0.319,9.19,6.07,-2.66
509682.828000,0.832,-0.454,-0.32,7.08,5.04,-10.59
509682.875000,0.824,-0.399,-0.295,7.42,3.48,-8.88
509682.921000,0.813,-0.385,-0.277,5.25,3.05,-6.71
509682.968000,0.813,-0.391,-0.285,3.91,-0.82,-6.04
509683.015000,0.811,-0.4,-0.302,5.86,1.1,-2.23
509683.062000,0.786,-0.388,-0.302,4.21,-1.83,-2.99
509683.109000,0.789,-0.501,-0.495,23.29,10.9,-0.18
509683.156000,0.758,-0.6,-0.572,75.75,42.02,-0.95
509683.203000,0.81,-0.501,-0.686,95.98,62.9,-36.41
509683.250000,0.729,-0.322,-0.583,109.44,89.6,-14.34
509683.312000,0.819,-0.312,-0.265,94.52,71.81,-0.79
509683.359000,0.886,-0.313,0.021,58.72,42.6,-6.44
509683.406000,0.828,-0.247,0.152,17.12,21.21,-21.27
509683.453000,0.854,-0.26,0.241,4.55,8.85,-7.17
509683.500000,0.998,-0.261,0.229,-73.15,5.19,-49.29
509683.546000,0.948,-0.423,0.368,-56.83,33.94,21.67
509683.609000,0.893,-0.258,0.361,-133.46,4.94,-31.98
509683.656000,0.789,-0.455,0.234,-127.66,2.96,24.2
509683.703000,0.901,-0.693,0.272,-96.22,48.1,14.04
509683.750000,0.93,-0.672,0.239,-82.58,43.12,-5.16
509683.796000,1.009,-0.651,0.189,-43.58,74.5,-4.97
509683.843000,0.907,-0.394,0.3,-36.04,80.02,-37.05
509683.890000,0.868,-0.226,0.297,-56.61,63.51,-49.2
509683.937000,0.864,-0.38,0.373,-55.24,42.88,-34.94
509683.984000,0.963,-0.569,0.288,-10.01,2.9,-9.4
509684.031000,0.825,-0.5,0.263,-36.81,34.7,-55.82
509684.078000,0.809,-0.255,0.325,-3.48,51.61,-36.13
509684.125000,0.816,-0.193,0.355,6.2,39.16,-22.83
509684.171000,0.834,-0.232,0.371,9.98,30.34,3.17
509684.218000,0.868,-0.319,0.403,-9.13,12.94,-10.19
509684.265000,0.873,-0.306,0.378,6.04,6.87,-8.64
509684.312000,0.869,-0.206,0.349,-1.5,2.08,-14.86
509684.359000,0.868,-0.209,0.354,1.28,5.89,-2.38
509684.406000,0.876,-0.269,0.356,-6.5,7.84,-3.14
509684.453000,0.876,-0.237,0.374,-3.42,11.54,-4.12
509684.500000,0.876,-0.227,0.417,-5.34,4.73,2.87
509684.546000,0.893,-0.234,0.369,-7.51,-2.08,-0.03
509684.593000,0.863,-0.262,0.39,-6.59,-2.2,5.55
509684.640000,0.866,-0.295,0.413,-0.64,-5.62,6.1
509684.687000,0.937,-0.258,0.306,3.72,-11.78,6.32
509684.734000,0.94,-0.323,0.279,-0.55,14.44,2.5
509684.781000,0.894,-0.325,0.337,3.97,24.51,-3.94
509684.828000,0.847,-0.246,0.403,0.76,21.39,-10.71
509684.875000,0.852,-0.234,0.412,-2.66,10.53,-7.08
509684.921000,0.85,-0.269,0.398,-16.27,-4.33,-16.21
509684.968000,0.894,-0.273,0.383,1.25,3.57,-3.3
509685.015000,0.902,-0.238,0.366,-2.56,2.99,-9.16
509685.062000,0.889,-0.209,0.385,-6.16,5.98,-8.24
509685.109000,0.842,-0.24,0.45,-2.96,7.66,1.68
509685.156000,0.854,-0.262,0.432,-2.41,-2.23,-3.81
509685.203000,0.878,-0.233,0.395,3.11,-3.27,0.34
509685.250000,0.87,-0.221,0.413,0.95,-1.16,0.49
509685.296000,0.814,-0.266,0.477,15.23,6.78,8.24
509685.343000,0.842,-0.212,0.435,1.56,-11.69,1.16
509685.390000,0.907,-0.222,0.371,14.59,-10.65,17.3
509685.437000,0.942,-0.28,0.331,2.93,-6.1,3.51
509685.484000,0.902,-0.218,0.366,10.07,5.46,5.98
509685.531000,0.872,-0.24,0.377,3.23,4.73,1.86
509685.578000,0.852,-0.263,0.424,5.4,4.09,6.1
509685.625000,0.871,-0.221,0.402,-1.13,-1.37,2.93
509685.671000,0.918,-0.246,0.376,-0.76,-13.82,12.15
509685.718000,0.923,-0.363,0.332,0.31,-5.77,-1.68
509685.765000,0.822,-0.271,0.53,18.19,5.16,0.73
509685.812000,0.711,-0.331,0.691,40.25,9.83,21.12
509685.859000,0.685,-0.347,0.724,70.56,0.95,27.16
509685.906000,0.655,-0.358,0.801,98.88,-2.56,56.46
509685.953000,0.681,-0.556,0.657,108.43,-3.72,92.5
509686.000000,0.568,-0.347,0.879,165.96,6.01,84.81
509686.046000,0.563,-0.164,0.87,123.75,-55.54,82.8
509686.093000,0.825,-0.438,0.593,109.59,-89.66,119.3
509686.140000,0.975,-0.176,0.726,-3.39,-101.72,25.76
509686.187000,0.901,-0.208,0.134,-56.55,-166.88,36.77
509686.234000,0.823,-0.283,0.173,-49.81,-83.29,23.74
509686.281000,0.835,-0.323,-0.077,-66.32,-84.17,-2.9
509686.328000,0.626,-0.26,-0.155,-104.19,-136.08,-1.62
509686.375000,0.608,-0.385,-0.745,-115.48,-156.41,-0.95
509686.421000,0.938,-0.914,-1.035,-115.15,-159.7,21.0
509686.468000,0.881,-0.587,-0.772,-62.17,-42.12,-41.75
509686.515000,0.777,-0.066,-0.395,-13.4,10.96,-31.77
509686.562000,0.745,-0.135,-0.407,-27.19,-34.33,14.37
509686.609000,0.821,-0.228,-0.543,-32.5,-37.69,5.83
509686.656000,0.797,-0.204,-0.606,-31.56,-31.77,11.63
509686.703000,0.784,-0.372,-0.618,-0.7,-9.61,28.32
509686.750000,0.745,-0.293,-0.469,2.66,2.26,-11.69
509686.796000,0.789,-0.163,-0.481,6.96,-5.52,-6.32
509686.843000,0.813,-0.203,-0.464,-5.58,-3.97,5.74
509686.890000,0.81,-0.267,-0.482,-9.16,-6.84,12.67
509686.937000,0.789,-0.299,-0.498,-9.61,-13.55,4.18
509686.984000,0.756,-0.354,-0.509,-0.95,-8.73,16.72
509687.031000,0.787,-0.348,-0.528,0.37,-10.41,3.42
509687.078000,0.823,-0.355,-0.55,4.79,-1.77,7.69
509687.125000,0.804,-0.32,-0.514,6.87,2.78,2.62
509687.171000,0.805,-0.312,-0.531,-1.5,4.52,-3.39
509687.218000,0.801,-0.303,-0.529,0.03,6.65,-2.41
509687.265000,0.807,-0.333,-0.52,-1.34,7.17,-2.2
509687.312000,0.772,-0.32,-0.491,2.26,11.84,0.21
509687.359000,0.769,-0.294,-0.444,-3.08,10.38,-4.88
509687.406000,0.78,-0.349,-0.483,3.94,5.98,5.8
509687.453000,0.773,-0.344,-0.462,2.44,10.96,-4.64
509687.500000,0.787,-0.33,-0.446,1.8,3.23,-1.22
509687.546000,0.785,-0.293,-0.478,-0.55,2.78,0.18
509687.593000,0.803,-0.309,-0.447,-0.12,3.72,2.9
509687.640000,0.817,-0.344,-0.477,1.98,0.09,2.44
509687.687000,0.808,-0.34,-0.481,4.3,5.55,-2.35
509687.734000,0.823,-0.323,-0.476,4.58,5.49,0.18
509687.781000,0.806,-0.32,-0.459,4.55,3.81,0.0
509687.828000,0.795,-0.33,-0.451,7.54,9.13,-6.78
509687.875000,0.764,-0.255,-0.412,-4.82,3.33,-9.7
509687.921000,0.81,-0.314,-0.454,-1.1,-3.66,8.21
509687.968000,0.824,-0.36,-0.453,2.56,5.4,4.36
509688.015000,0.834,-0.341,-0.449,1.37,1.83,-2.56
509688.062000,0.824,-0.303,-0.432,4.67,6.23,-0.49
509688.109000,0.816,-0.31,-0.436,-0.09,-3.81,4.7
509688.171000,0.803,-0.331,-0.422,0.06,0.27,6.74
509688.218000,0.807,-0.337,-0.454,-2.69,-2.38,3.27
509688.265000,0.804,-0.356,-0.434,-0.98,0.12,4.0
509688.312000,0.827,-0.354,-0.483,-5.77,-3.54,-7.08
509688.359000,0.834,-0.361,-0.455,1.77,4.39,-2.04
509688.406000,0.829,-0.327,-0.453,3.39,4.67,-2.96
509688.453000,0.829,-0.313,-0.42,9.0,4.97,9.7
509688.500000,0.82,-0.34,-0.433,4.09,3.85,5.43
509688.546000,0.81,-0.337,-0.433,0.24,2.53,1.59
509688.593000,0.82,-0.353,-0.457,3.17,4.79,3.2
509688.640000,0.818,-0.357,-0.424,2.41,7.84,-2.35
509688.687000,0.813,-0.351,-0.408,2.66,5.65,4.03
509688.734000,0.814,-0.351,-0.416,1.92,4.39,1.74
509688.781000,0.818,-0.314,-0.416,5.4,4.52,7.29
509688.828000,0.795,-0.304,-0.411,0.27,9.49,-0.06
509688.875000,0.798,-0.353,-0.387,-2.93,1.1,8.7
509688.921000,0.818,-0.407,-0.414,-8.12,-1.74,-0.43
509688.968000,0.834,-0.407,-0.415,-1.43,1.37,3.85
509689.015000,0.824,-0.404,-0.398,1.04,2.59,3.69
509689.062000,0.819,-0.415,-0.398,1.65,6.07,-2.29
509689.109000,0.817,-0.351,-0.388,3.2,2.44,-1.25
509689.156000,0.824,-0.313,-0.4,5.46,4.49,8.79
509689.203000,0.82,-0.349,-0.362,0.79,5.19,5.22
509689.250000,0.811,-0.362,-0.374,-4.61,-0.46,3.33
509689.296000,0.831,-0.403,-0.409,-6.1,1.71,-0.7
509689.343000,0.83,-0.414,-0.396,-1.46,2.66,3.85
509689.390000,0.83,-0.414,-0.408,0.15,4.12,-0.37
509689.437000,0.829,-0.395,-0.372,2.75,1.68,-2.44
509689.484000,0.826,-0.357,-0.379,7.66,7.69,0.85
509689.531000,0.807,-0.385,-0.372,-1.01,1.92,-2.04
509689.578000,0.811,-0.376,-0.382,2.99,1.95,1.77
509689.625000,0.817,-0.405,-0.373,4.46,1.62,-1.01
509689.671000,0.819,-0.361,-0.361,4.21,0.85,-2.66
509689.718000,0.83,-0.347,-0.365,2.5,-0.7,0.27
509689.765000,0.828,-0.388,-0.379,2.14,-0.64,2.72
509689.812000,0.824,-0.376,-0.376,-0.52,-1.74,-3.72
509689.859000,0.832,-0.382,-0.378,-0.43,-2.62,-1.04
509689.906000,0.832,-0.388,-0.368,1.16,0.43,3.48
509689.953000,0.83,-0.405,-0.376,2.11,0.34,2.29
509690.000000,0.812,-0.348,-0.382,7.26,2.23,4.85
509690.046000,0.801,-0.375,-0.363,25.91,6.04,26.76
509690.093000,0.783,-0.392,-0.327,9.86,9.77,10.62
509690.140000,0.828,-0.401,-0.35,-6.84,-5.71,0.34
509690.187000,0.83,-0.452,-0.387,-11.54,5.13,12.54
509690.234000,0.802,-0.505,-0.346,-4.73,6.59,1.07
509690.281000,0.813,-0.467,-0.355,4.03,0.64,-3.72
509690.328000,0.811,-0.436,-0.346,3.57,2.35,-3.66
509690.375000,0.82,-0.438,-0.343,0.64,1.71,-3.78
509690.421000,0.82,-0.456,-0.36,-0.27,1.1,-3.94
509690.468000,0.816,-0.438,-0.321,4.12,6.07,0.89
509690.515000,0.815,-0.436,-0.327,4.91,3.05,-2.38
509690.562000,0.807,-0.419,-0.314,5.65,2.01,-2.29
509690.609000,0.818,-0.41,-0.348,2.93,-4.49,-2.38
509690.656000,0.831,-0.435,-0.35,2.38,0.21,-4.55
509690.703000,0.827,-0.399,-0.35,4.43,0.55,-2.93
509690.750000,0.824,-0.387,-0.328,0.52,-1.16,-3.91
509690.796000,0.824,-0.41,-0.342,4.3,-1.98,4.91
509690.843000,0.827,-0.414,-0.345,0.06,-1.56,-4.97
509690.890000,0.842,-0.405,-0.353,1.59,-0.43,-1.65
509690.937000,0.808,-0.379,-0.351,1.59,0.55,2.11
509690.984000,0.799,-0.373,-0.338,1.74,1.77,16.69
509691.031000,0.809,-0.49,-0.318,2.47,-1.28,17.37
509691.078000,0.828,-0.449,-0.37,1.53,0.31,-6.84
509691.125000,0.818,-0.407,-0.34,4.97,4.33,0.58
509691.171000,0.826,-0.432,-0.337,1.13,0.46,-0.37
509691.218000,0.813,-0.43,-0.35,2.5,3.02,3.36
509691.265000,0.811,-0.443,-0.311,2.11,2.23,0.55
509691.312000,0.783,-0.395,-0.322,-0.34,-1.04,5.58
509691.359000,0.791,-0.506,-0.32,-0.7,-4.36,9.19
509691.406000,0.79,-0.484,-0.352,-0.4,-0.79,-0.49
509691.453000,0.827,-0.473,-0.331,5.04,0.37,2.08
509691.500000,0.828,-0.441,-0.336,2.01,-0.92,-2.66
509691.546000,0.833,-0.443,-0.334,2.11,0.64,4.61
509691.593000,0.827,-0.466,-0.341,-0.46,1.53,0.79
509691.640000,0.816,-0.485,-0.33,-0.98,3.3,2.01
509691.687000,0.807,-0.482,-0.341,-0.24,5.13,-0.43
509691.734000,0.789,-0.494,-0.327,5.37,4.67,3.78
509691.781000,0.782,-0.456,-0.299,1.89,5.62,-4.61
509691.828000,0.78,-0.431,-0.295,1.98,-0.27,3.88
509691.875000,0.774,-0.472,-0.311,0.55,-0.92,3.08
509691.921000,0.805,-0.467,-0.323,1.71,-0.98,-0.46
509691.968000,0.809,-0.445,-0.334,1.83,-1.53,0.0
509692.031000,0.828,-0.486,-0.336,4.03,3.36,1.46
509692.078000,0.819,-0.494,-0.324,4.76,4.06,-1.31
509692.125000,0.812,-0.473,-0.323,6.68,7.05,0.24
509692.171000,0.821,-0.485,-0.271,6.56,9.55,-5.34
509692.218000,0.833,-0.415,-0.28,0.98,5.22,-1.31
509692.281000,0.847,-0.563,-0.355,9.49,6.68,11.69
509692.328000,0.841,-0.606,-0.391,20.69,15.05,-3.57
509692.375000,0.828,-0.649,-0.415,40.68,29.05,-4.43
509692.437000,0.763,-0.647,-0.392,66.53,36.44,-25.79
509692.484000,0.7,-0.698,-0.462,99.31,51.48,-20.39
509692.531000,0.609,-0.762,-0.366,130.5,37.05,-22.06
509692.578000,0.793,-0.355,-0.398,141.94,39.46,-46.85
509692.625000,0.742,-0.169,-0.21,145.18,59.21,-3.94
509692.671000,0.766,-0.155,-0.004,126.93,56.61,11.14
509692.718000,0.833,0.086,0.145,60.21,84.44,-28.9
509692.765000,0.935,0.087,0.378,29.27,106.33,-9.67
509692.812000,0.937,-0.001,0.596,-11.96,116.37,9.43
509692.859000,0.86,-0.34,0.771,-89.97,97.17,-13.25
509692.906000,0.768,-0.492,0.825,-120.27,64.15,-42.21
509692.953000,0.715,-0.558,0.71,-118.99,32.47,-46.36
509693.000000,0.616,-0.615,0.563,-99.49,39.92,-44.01
509693.046000,0.496,-0.517,0.674,-68.7,45.08,-43.89
509693.093000,0.553,-0.341,0.732,-37.93,18.13,-21.09
509693.140000,0.54,-0.295,0.743,-58.75,-7.26,2.23
509693.187000,0.706,-0.568,0.502,-45.5,-43.76,30.52
509693.234000,0.776,-0.591,0.488,-30.12,-20.84,16.36
509693.281000,0.823,-0.575,0.452,-8.64,-11.08,15.56
509693.328000,0.796,-0.636,0.437,-12.51,-7.14,5.22
509693.375000,0.775,-0.611,0.38,5.71,-6.62,-1.56
509693.421000,0.714,-0.498,0.4,4.46,-4.49,-0.49
509693.484000,0.688,-0.584,0.393,21.61,-13.61,29.39
509693.531000,0.735,-0.544,0.329,8.94,-10.56,-3.69
509693.578000,0.761,-0.5,0.324,19.14,-7.26,11.05
509693.625000,0.767,-0.504,0.346,6.1,4.7,8.51
509693.671000,0.743,-0.558,0.386,2.53,3.6,12.02
509693.718000,0.748,-0.56,0.392,-2.29,7.11,3.05
509693.765000,0.73,-0.579,0.393,9.98,2.41,14.13
509693.812000,0.738,-0.591,0.413,18.34,6.13,17.64
509693.859000,0.71,-0.621,0.432,5.89,4.58,2.72
509693.906000,0.718,-0.581,0.4,22.74,9.06,8.03
509693.953000,0.706,-0.543,0.431,-1.74,9.95,-12.45
509694.000000,0.713,-0.547,0.383,12.88,12.21,1.5
509694.046000,0.666,-0.509,0.472,-1.28,17.43,-6.29
509694.093000,0.659,-0.552,0.471,-1.65,6.38,3.48
509694.156000,0.685,-0.556,0.477,-4.09,-0.27,-0.27
509694.203000,0.716,-0.498,0.453,-4.82,2.75,1.28
509694.250000,0.72,-0.596,0.486,-2.01,-4.97,11.93
509694.296000,0.717,-0.599,0.436,0.67,-4.27,2.59
509694.359000,0.681,-0.566,0.456,-10.93,-3.48,-9.06
509694.406000,0.665,-0.639,0.446,-1.5,5.62,-1.98
509694.453000,0.657,-0.577,0.465,-2.38,5.92,-7.9
509694.500000,0.683,-0.552,0.456,0.95,6.81,-2.5
509694.546000,0.69,-0.564,0.472,-1.4,0.24,-0.31
509694.593000,0.721,-0.573,0.424,-0.31,-2.2,0.52
509694.640000,0.719,-0.593,0.411,-3.05,-1.92,-2.5
509694.687000,0.71,-0.541,0.417,-1.37,4.7,-5.92
509694.734000,0.692,-0.53,0.44,-5.52,1.56,0.49
509694.781000,0.699,-0.599,0.43,-10.1,-0.95,2.2
509694.828000,0.699,-0.571,0.433,-10.35,1.59,-7.63
509694.890000,0.712,-0.535,0.439,-6.84,6.04,-1.1
509694.937000,0.699,-0.581,0.466,-5.8,6.5,4.3
509694.984000,0.692,-0.588,0.473,-4.97,6.01,-1.31
509695.031000,0.683,-0.553,0.47,-3.88,1.07,-1.98
509695.078000,0.686,-0.554,0.454,-0.03,-0.09,2.56
509695.125000,0.7,-0.567,0.456,-3.05,-1.19,-1.25
509695.171000,0.718,-0.566,0.424,2.2,-2.11,5.28
509695.218000,0.712,-0.59,0.415,-2.41,0.37,-2.84
509695.265000,0.699,-0.549,0.433,-0.18,4.39,-2.01
509695.312000,0.684,-0.553,0.446,-3.45,4.21,-1.46
509695.359000,0.688,-0.565,0.446,1.68,1.89,1.68
509695.406000,0.687,-0.561,0.445,-0.46,-1.31,3.72
509695.453000,0.687,-0.596,0.447,1.4,2.81,2.56
509695.500000,0.684,-0.569,0.443,2.11,0.18,-0.82
509695.546000,0.692,-0.56,0.432,1.34,-1.28,2.01
509695.593000,0.699,-0.588,0.433,0.55,-2.2,4.73
509695.640000,0.712,-0.581,0.425,-2.01,0.64,-1.86
509695.687000,0.71,-0.578,0.435,2.53,4.0,-0.52
509695.734000,0.694,-0.58,0.449,0.58,4.91,-2.11
509695.781000,0.683,-0.576,0.461,3.27,3.69,-0.67
509695.828000,0.681,-0.617,0.462,6.5,-0.89,2.23
509695.875000,0.68,-0.552,0.468,4.15,0.03,-6.13
509695.921000,0.695,-0.518,0.451,5.83,-0.95,0.18
509695.968000,0.71,-0.557,0.439,-1.92,-0.37,0.27
509696.015000,0.706,-0.561,0.459,0.49,1.37,1.77
509696.062000,0.697,-0.552,0.462,-4.21,2.75,-3.33
509696.109000,0.689,-0.561,0.458,0.03,1.74,1.86
509696.156000,0.683,-0.556,0.467,-3.78,1.4,-1.16
509696.203000,0.689,-0.555,0.455,-2.29,-0.55,1.04
509696.250000,0.692,-0.551,0.455,-4.24,-2.14,1.98
509696.296000,0.703,-0.583,0.437,-1.01,-0.49,2.99
509696.343000,0.702,-0.592,0.453,-2.99,0.95,-0.89
509696.390000,0.694,-0.541,0.447,-2.96,4.27,-6.32
509696.453000,0.693,-0.556,0.426,-1.56,9.43,0.67
509696.500000,0.688,-0.572,0.478,-0.21,6.35,2.29
509696.562000,0.682,-0.549,0.463,-3.05,-1.13,-0.15
509696.609000,0.693,-0.579,0.454,-0.79,-0.92,5.19
509696.656000,0.695,-0.593,0.453,-2.69,-0.52,-0.27
509696.703000,0.681,-0.555,0.458,0.0,-0.95,-0.37
509696.750000,0.666,-0.59,0.463,1.77,-1.92,6.41
509696.796000,0.672,-0.592,0.452,2.93,-4.94,4.18
509696.843000,0.702,-0.553,0.424,1.19,-5.58,2.08
509696.890000,0.711,-0.582,0.42,0.64,0.09,4.82
509696.937000,0.697,-0.587,0.447,-0.43,0.0,-1.22
509697.000000,0.686,-0.571,0.438,-0.21,1.95,1.53
509697.062000,0.675,-0.587,0.453,0.73,0.27,1.34
509697.109000,0.684,-0.561,0.45,-0.09,-0.76,0.24
509697.156000,0.688,-0.581,0.438,1.68,0.06,3.42
509697.203000,0.685,-0.599,0.452,-0.4,1.01,-0.12
509697.250000,0.692,-0.567,0.456,2.35,-0.64,-0.85
509697.296000,0.682,-0.557,0.464,0.67,-0.73,0.79
509697.343000,0.683,-0.591,0.479,1.86,-0.64,4.67
509697.390000,0.687,-0.64,0.423,1.59,-4.06,-0.27
509697.437000,0.654,-0.517,0.44,1.16,5.49,-6.29
509697.500000,0.646,-0.564,0.43,2.2,5.52,7.26
509697.546000,0.602,-0.553,0.498,-0.79,2.81,8.97
509697.593000,0.66,-0.658,0.521,2.2,-17.88,21.15
509697.640000,0.725,-0.719,0.404,3.69,-29.42,11.29
509697.687000,0.765,-0.569,0.356,8.15,-17.12,-3.94
509697.734000,0.716,-0.609,0.431,9.16,-2.04,7.81
509697.781000,0.684,-0.595,0.478,-2.35,-4.97,-6.99
509697.828000,0.692,-0.54,0.446,0.49,-5.34,-6.5
509697.875000,0.676,-0.606,0.427,5.1,-5.74,2.04
509697.921000,0.667,-0.556,0.438,4.79,-5.55,-3.45
509697.968000,0.674,-0.565,0.412,7.9,-11.87,5.83
509698.015000,0.688,-0.592,0.412,16.17,-1.95,7.45
509698.062000,0.693,-0.589,0.444,14.74,-5.1,9.8
509698.109000,0.721,-0.638,0.389,17.06,-8.91,4.88
509698.156000,0.761,-0.573,0.271,-2.96,-12.63,-19.17
509698.203000,0.695,-0.41,0.348,-16.24,8.51,-15.17
509698.250000,0.683,-0.511,0.461,-6.07,18.92,15.26
509698.296000,0.66,-0.662,0.458,-6.35,9.89,9.83
509698.343000,0.673,-0.574,0.444,5.31,9.19,-3.05
509698.390000,0.695,-0.493,0.445,-3.72,4.12,4.36
509698.437000,0.7,-0.634,0.417,-8.21,5.77,13.58
509698.484000,0.675,-0.614,0.518,-14.28,6.38,2.78
509698.531000,0.685,-0.677,0.492,-17.73,-15.5,-1.56
509698.578000,0.715,-0.653,0.381,0.92,-2.35,-7.35
509698.625000,0.682,-0.585,0.392,5.68,1.46,-6.81
509698.671000,0.681,-0.564,0.341,3.17,-1.62,-6.32
509698.718000,0.667,-0.525,0.394,3.05,3.57,2.41
509698.765000,0.676,-0.597,0.424,2.29,0.15,12.63
509698.812000,0.669,-0.649,0.443,0.34,0.58,6.84
509698.859000,0.687,-0.63,0.443,1.5,0.0,1.4
509698.906000,0.711,-0.583,0.429,0.21,-7.54,-0.55
509698.953000,0.705,-0.606,0.405,6.74,0.46,3.85
509699.000000,0.686,-0.614,0.437,-0.06,-4.79,1.92
509699.046000,0.676,-0.655,0.43,2.62,-9.61,5.55
509699.093000,0.644,-0.729,0.402,18.22,-4.91,10.83
509699.140000,0.638,-0.652,0.417,28.44,10.1,-0.7
509699.187000,0.635,-0.551,0.43,19.78,-0.55,0.85
509699.234000,0.615,-0.63,0.316,26.95,-9.34,10.35
509699.281000,0.689,-0.271,0.497,-24.84,-14.74,-23.71
509699.343000,0.797,-0.547,0.436,-28.14,-14.83,38.82
509699.390000,0.714,-0.836,0.493,-3.45,18.77,26.58
509699.453000,0.594,-0.67,0.488,17.61,-0.85,-26.61
509699.500000,0.618,-0.525,0.39,0.4,-15.29,-19.59
509699.546000,0.661,-0.595,0.331,7.9,-10.07,18.22
509699.593000,0.714,-0.617,0.356,3.23,-5.28,12.79
509699.640000,0.721,-0.605,0.362,-0.61,-3.02,2.81
509699.687000,0.753,-0.568,0.408,-8.64,4.97,-2.23
509699.734000,0.718,-0.622,0.428,-6.65,9.61,2.29
509699.781000,0.663,-0.647,0.436,-6.59,13.43,-5.74
509699.828000,0.615,-0.626,0.464,3.45,12.36,-1.68
509699.875000,0.613,-0.623,0.447,0.37,2.11,-1.71
509699.921000,0.653,-0.659,0.41,4.49,-8.24,5.52
509699.968000,0.741,-0.566,0.374,0.49,-9.31,-3.63
509700.015000,0.763,-0.52,0.396,-7.93,-3.72,0.85
509700.062000,0.724,-0.652,0.399,-12.97,5.16,3.45
509700.109000,0.661,-0.717,0.451,-3.81,17.58,-1.16
509700.156000,0.614,-0.668,0.478,-5.46,11.35,-19.84
509700.203000,0.636,-0.566,0.431,-8.3,-5.1,-19.75
509700.250000,0.692,-0.586,0.409,0.98,-11.05,-1.62
509700.296000,0.773,-0.671,0.325,2.84,-5.8,-4.76
509700.343000,0.742,-0.566,0.372,12.88,23.44,-16.79
509700.390000,0.661,-0.503,0.443,12.3,27.38,-13.28
509700.437000,0.613,-0.535,0.505,5.04,10.16,-4.03
509700.484000,0.643,-0.516,0.479,-1.13,-0.4,-6.59
509700.531000,0.665,-0.527,0.497,2.26,-4.88,10.38
509700.578000,0.706,-0.592,0.463,2.14,-14.04,8.7
509700.625000,0.706,-0.658,0.397,7.72,-11.99,4.33
509700.671000,0.696,-0.508,0.379,11.47,1.59,-6.1
509700.718000,0.719,-0.355,0.441,-0.67,-2.75,10.07
509700.765000,0.702,-0.454,0.398,-11.11,-1.98,29.11
509700.812000,0.671,-0.736,0.375,21.58,9.86,62.99
509700.859000,0.633,-0.836,0.458,40.59,18.74,44.86
509700.906000,0.619,-0.576,0.497,-15.96,21.36,-32.72
509700.953000,0.566,-0.422,0.527,-44.74,7.63,-29.15
509701.000000,0.592,-0.737,0.544,12.33,5.86,32.04
509701.046000,0.63,-0.538,0.504,-19.14,-12.73,-12.39
509701.093000,0.592,-0.627,0.39,-29.51,-19.23,7.48
509701.140000,0.625,-0.896,0.378,-20.66,-13.82,11.66
509701.187000,0.683,-0.563,0.446,-51.73,-21.21,-51.33
509701.234000,0.672,-0.515,0.338,-32.9,-32.53,-12.67
509701.281000,0.713,-0.773,0.273,20.2,6.47,34.91
509701.328000,0.651,-0.638,0.484,-4.06,17.06,-8.7
509701.375000,0.63,-0.651,0.397,-4.3,-12.24,3.94
509701.421000,0.631,-0.741,0.332,10.53,-1.74,6.65
509701.468000,0.655,-0.576,0.367,0.55,-4.3,0.67
509701.515000,0.696,-0.786,0.281,8.55,-4.94,9.52
509701.562000,0.7,-0.583,0.339,0.43,10.13,-12.05
509701.609000,0.662,-0.342,0.394,-7.57,11.84,0.21
509701.656000,0.547,-0.754,0.432,-31.53,5.49,42.66
509701.703000,0.575,-1.155,0.413,47.49,7.45,41.6
509701.750000,0.638,-0.554,0.336,5.43,-22.43,-52.86
509701.796000,0.653,-0.375,0.264,-26.34,-24.6,-52.49
509701.859000,0.669,-0.662,0.356,14.1,13.43,35.98
509701.921000,0.632,-0.688,0.45,-7.26,12.54,-16.42
509701.968000,0.652,-0.635,0.422,7.48,3.2,-1.71
509702.015000,0.644,-0.75,0.314,6.32,11.72,1.04
509702.062000,0.64,-0.747,0.382,5.49,16.88,-10.01
509702.109000,0.626,-0.655,0.405,0.82,11.35,-14.89
509702.156000,0.621,-0.631,0.401,3.11,13.4,-10.9
509702.203000,0.636,-0.622,0.429,4.49,1.71,-4.52
509702.265000,0.679,-0.599,0.427,-6.44,-3.08,-8.21
509702.312000,0.683,-0.661,0.398,-7.08,-2.84,1.25
509702.359000,0.643,-0.703,0.404,-7.05,8.88,-5.37
509702.406000,0.611,-0.632,0.451,-6.9,5.98,-10.53
509702.453000,0.639,-0.644,0.43,-8.24,-6.2,-2.38
509702.500000,0.634,-0.738,0.388,5.37,-8.36,6.16
509702.546000,0.604,-0.671,0.332,12.76,-6.71,-6.32
509702.593000,0.666,-0.424,0.396,-5.71,-11.81,-10.8
509702.640000,0.743,-0.464,0.335,-17.3,-3.08,-3.42
509702.687000,0.671,-0.704,0.46,-4.94,19.38,17.21
509702.734000,0.63,-0.805,0.478,11.51,16.05,15.35
509702.781000,0.633,-0.651,0.471,-1.53,-2.75,-14.44
509702.843000,0.641,-0.628,0.364,6.87,-13.92,6.78
509702.890000,0.648,-0.64,0.363,0.18,-5.8,3.48
509702.937000,0.651,-0.661,0.381,5.8,-4.73,8.7
509702.984000,0.671,-0.65,0.391,0.09,-4.82,-0.43
509703.031000,0.691,-0.637,0.396,0.06,-5.74,0.0
509703.078000,0.697,-0.648,0.392,0.92,-2.81,1.01
509703.125000,0.681,-0.662,0.381,5.62,3.45,0.55
509703.171000,0.666,-0.622,0.394,3.11,5.34,-2.66
509703.218000,0.646,-0.659,0.35,0.73,3.05,0.46
509703.265000,0.643,-0.632,0.371,-3.69,6.78,-4.61
509703.312000,0.644,-0.605,0.395,-7.93,5.8,0.67
509703.359000,0.629,-0.641,0.409,-9.22,4.27,3.23
509703.406000,0.618,-0.687,0.425,-6.81,0.03,0.0
509703.453000,0.654,-0.646,0.413,-4.15,-6.5,0.82
509703.500000,0.694,-0.646,0.364,-3.08,-6.29,-0.58
509703.562000,0.673,-0.649,0.377,-0.73,3.78,0.03
509703.609000,0.643,-0.654,0.425,0.89,6.68,0.52
509703.656000,0.642,-0.671,0.414,1.43,1.89,3.48
509703.703000,0.647,-0.662,0.409,2.38,1.56,-0.46
509703.750000,0.648,-0.636,0.396,2.66,-1.56,0.64
509703.796000,0.656,-0.667,0.371,1.86,-2.53,1.62
509703.843000,0.652,-0.633,0.374,0.61,-0.58,0.34
509703.890000,0.654,-0.653,0.362,-1.68,0.95,0.09
509703.937000,0.654,-0.643,0.377,-1.5,3.54,-0.4
509703.984000,0.655,-0.647,0.403,-3.33,-0.31,2.96
509704.031000,0.66,-0.657,0.386,-3.42,0.18,0.18
509704.078000,0.654,-0.672,0.397,-1.71,0.64,0.92
509704.125000,0.652,-0.643,0.389,-3.66,0.58,-2.56
509704.171000,0.64,-0.673,0.396,-0.03,-0.73,2.66
509704.218000,0.65,-0.662,0.365,-0.06,-0.73,-1.59
509704.265000,0.661,-0.644,0.365,0.7,2.75,-2.56
509704.312000,0.656,-0.625,0.391,-2.17,3.54,-0.18
509704.359000,0.646,-0.681,0.39,0.73,3.57,0.82
509704.406000,0.651,-0.655,0.404,-0.82,1.13,-3.08
509704.453000,0.649,-0.64,0.392,1.59,1.01,0.24
509704.500000,0.645,-0.643,0.397,-1.16,1.19,-0.15
509704.546000,0.658,-0.66,0.382,-0.82,-0.79,0.12
509704.593000,0.667,-0.666,0.384,1.34,2.38,0.21
509704.640000,0.663,-0.634,0.386,-3.11,1.68,-4.3
509704.687000,0.653,-0.645,0.385,0.49,3.6,-1.16
509704.734000,0.645,-0.658,0.388,-2.56,3.66,-1.28
509704.781000,0.654,-0.649,0.4,-1.31,6.38,-3.17
509704.828000,0.657,-0.632,0.406,-0.58,-0.18,-0.82
509704.875000,0.649,-0.648,0.397,-1.74,2.75,-0.43
509704.921000,0.644,-0.664,0.406,0.98,2.78,-1.95
509704.968000,0.646,-0.643,0.402,-0.49,-2.01,-1.46
509705.015000,0.653,-0.638,0.38,-0.82,-2.29,0.37
509705.062000,0.663,-0.655,0.361,-1.68,-2.29,0.89
509705.109000,0.665,-0.651,0.38,-0.58,3.6,-0.89
509705.156000,0.649,-0.626,0.4,-3.51,1.43,0.09
509705.203000,0.65,-0.661,0.388,-2.44,-0.27,2.75
509705.250000,0.657,-0.662,0.382,-2.2,-0.55,-0.12
509705.312000,0.658,-0.652,0.385,-1.07,0.89,0.82
509705.359000,0.655,-0.657,0.389,-1.62,-0.34,2.69
509705.406000,0.653,-0.644,0.385,-1.56,1.22,1.16
509705.453000,0.649,-0.642,0.397,0.46,-0.7,5.16
509705.515000,0.651,-0.648,0.353,-3.75,-0.7,4.88
509705.562000,0.651,-0.679,0.391,-3.23,0.03,5.13
509705.609000,0.655,-0.693,0.391,-1.04,1.07,0.49
509705.656000,0.646,-0.675,0.391,0.52,-0.27,-0.79
509705.703000,0.636,-0.632,0.375,-0.31,-0.64,-1.37
509705.750000,0.632,-0.678,0.343,1.56,-1.65,3.94
509705.796000,0.64,-0.667,0.378,-2.87,-1.19,0.7
509705.859000,0.676,-0.665,0.37,-2.35,-0.55,0.79
509705.906000,0.668,-0.67,0.382,-3.57,1.4,0.82
509705.953000,0.649,-0.68,0.396,-3.3,0.34,-1.25
509706.000000,0.642,-0.674,0.373,-0.89,1.68,-2.56
509706.046000,0.64,-0.657,0.372,-1.98,-1.07,-1.68
509706.109000,0.645,-0.657,0.372,-2.75,1.59,-1.13
509706.156000,0.651,-0.67,0.372,-2.9,-0.03,0.58
509706.218000,0.655,-0.677,0.36,-2.69,1.04,-0.21
509706.265000,0.653,-0.671,0.359,-0.95,4.21,-1.01
509706.312000,0.631,-0.648,0.393,-1.8,3.17,1.34
509706.359000,0.636,-0.678,0.372,-3.14,0.7,0.18
509706.406000,0.65,-0.668,0.361,-1.31,0.95,1.25
509706.453000,0.664,-0.665,0.363,-2.35,1.8,1.89
509706.500000,0.657,-0.699,0.361,-0.24,4.03,-0.21
509706.562000,0.627,-0.664,0.386,0.03,3.11,-0.67
509706.609000,0.63,-0.68,0.371,-0.85,0.31,-0.7
509706.656000,0.645,-0.672,0.357,1.77,0.67,-0.67
509706.703000,0.644,-0.662,0.368,-1.16,1.07,0.15
509706.750000,0.64,-0.682,0.367,-1.43,1.77,-0.58
509706.796000,0.645,-0.667,0.367,-0.61,0.49,0.43
509706.843000,0.65,-0.665,0.366,-3.2,0.92,-0.15
509706.890000,0.644,-0.674,0.369,-0.95,1.77,2.04
509706.937000,0.642,-0.688,0.379,-2.14,0.64,-0.12
509706.984000,0.646,-0.664,0.374,-1.34,1.01,-1.56
509707.031000,0.641,-0.656,0.372,-0.82,1.01,1.1
509707.078000,0.64,-0.698,0.384,1.31,0.55,0.06
509707.125000,0.647,-0.636,0.373,-1.37,-1.95,-2.72
509707.171000,0.645,-0.657,0.358,-0.15,-0.76,5.22
509707.218000,0.631,-0.702,0.381,-2.2,-0.12,4.15
509707.265000,0.644,-0.705,0.373,-0.06,-1.4,1.16
509707.312000,0.661,-0.669,0.355,0.67,-0.73,-0.7
509707.359000,0.652,-0.696,0.363,1.5,1.34,0.82
509707.406000,0.648,-0.71,0.368,2.93,0.06,-1.46
509707.453000,0.655,-0.667,0.363,4.15,6.47,-5.71
509707.500000,0.646,-0.642,0.376,1.89,4.18,-3.2
509707.546000,0.63,-0.66,0.378,-0.12,3.88,-1.8
509707.593000,0.637,-0.673,0.375,1.1,1.07,-1.68
509707.640000,0.642,-0.63,0.384,-0.7,0.61,-2.47
509707.687000,0.649,-0.66,0.367,-1.04,-0.24,3.78
509707.734000,0.653,-0.705,0.364,-1.28,0.79,-0.4
509707.781000,0.716,-0.497,0.345,-20.63,5.98,-14.65
509707.828000,0.684,-0.639,0.519,-5.19,-0.73,25.51
509707.875000,0.647,-0.972,0.271,21.97,-13.43,15.41
509707.921000,0.564,-0.599,0.297,-16.17,15.78,-40.35
509707.968000,0.488,-0.409,0.435,0.89,19.93,1.95
509708.015000,0.519,-0.654,0.328,-54.02,-10.47,-1.77
509708.062000,0.657,-0.921,0.349,3.66,-8.18,30.27
509708.109000,0.786,-0.728,0.395,0.98,-2.2,2.5
509708.156000,0.683,-0.729,0.324,2.93,0.92,-1.86
509708.203000,0.555,-0.73,0.382,10.99,10.56,1.34
509708.250000,0.557,-0.728,0.393,0.98,0.95,-13.86
509708.296000,0.605,-0.625,0.445,-21.55,6.53,-13.28
509708.343000,0.704,-0.767,0.336,5.13,-19.53,6.56
509708.390000,0.672,-0.73,0.202,-19.32,-11.23,-24.51
509708.437000,0.634,-0.651,0.316,-19.53,24.48,-35.31
509708.484000,0.652,-0.638,0.358,-28.2,19.01,-43.7
509708.531000,0.676,-0.649,0.355,4.15,14.83,-2.87
509708.578000,0.641,-0.51,0.485,-12.09,17.67,-6.2
509708.625000,0.663,-0.73,0.341,18.74,-27.65,20.69
509708.671000,0.651,-0.785,0.195,-9.03,-17.21,-13.49
509708.718000,0.685,-0.523,0.359,8.64,14.59,-3.39
509708.765000,0.695,-0.613,0.439,0.15,-5.77,9.46
509708.812000,0.694,-0.79,0.274,-4.97,-8.76,-3.39
509708.859000,0.66,-0.658,0.309,8.7,15.32,-18.28
509708.906000,0.658,-0.407,0.421,-9.64,17.64,-21.64
509708.953000,0.67,-0.675,0.394,16.72,-11.6,26.86
509709.000000,0.669,-0.782,0.262,-14.74,-14.65,-15.69
509709.046000,0.684,-0.57,0.296,-6.71,8.39,-29.97
509709.093000,0.691,-0.45,0.382,-23.35,11.38,-20.17
509709.140000,0.745,-0.659,0.308,13.15,-9.43,26.18
509709.187000,0.705,-0.712,0.264,-6.41,-1.43,-3.94
509709.234000,0.695,-0.615,0.301,-0.76,10.1,-5.95
509709.296000,0.717,-0.472,0.33,-20.69,16.63,-20.42
509709.343000,0.746,-0.777,0.381,0.73,-16.82,8.39
509709.390000,0.735,-0.704,0.234,-17.64,-22.61,-25.51
509709.437000,0.698,-0.498,0.265,0.79,13.37,-13.98
509709.484000,0.675,-0.486,0.325,-0.46,10.77,2.72
509709.531000,0.669,-0.717,0.498,-7.42,-1.65,36.38
509709.578000,0.733,-0.802,0.3,2.17,-20.39,-1.46
509709.625000,0.718,-0.6,0.205,10.28,0.12,-10.47
509709.671000,0.708,-0.476,0.294,-2.81,8.64,-5.86
509709.718000,0.703,-0.742,0.349,20.39,-7.66,33.14
509709.765000,0.74,-0.741,0.228,-9.46,-15.78,-16.69
509709.812000,0.744,-0.574,0.214,5.71,10.77,-10.38
509709.875000,0.725,-0.532,0.266,-2.41,15.84,-10.13
509709.921000,0.68,-0.7,0.395,5.46,3.36,21.21
509709.968000,0.721,-0.706,0.318,-10.13,-9.74,-10.38
509710.015000,0.692,-0.641,0.189,1.46,-4.0,-6.2
509710.062000,0.568,-0.511,0.326,-8.33,8.67,-5.98
509710.109000,0.586,-0.623,0.527,-16.91,1.34,29.63
509710.156000,0.789,-0.834,0.373,12.54,-28.66,19.9
509710.203000,0.803,-0.726,0.213,16.88,-26.28,-8.0
509710.250000,0.803,-0.574,0.219,22.74,-1.83,-10.62
509710.296000,0.68,-0.56,0.33,19.65,-6.26,11.44
509710.343000,0.681,-0.6,0.262,17.85,-13.12,10.62
509710.390000,0.658,-0.606,0.134,3.11,-18.25,2.53
509710.437000,0.722,-0.461,0.187,-5.71,4.58,-4.18
509710.484000,0.7,-0.673,0.391,12.24,-11.38,47.7
509710.546000,0.708,-0.825,0.215,-5.65,-24.26,0.61
509710.593000,0.752,-0.622,0.166,6.81,5.52,-14.77
509710.640000,0.661,-0.628,0.376,-7.63,7.51,12.67
509710.687000,0.717,-0.749,0.271,11.9,-13.18,15.72
509710.734000,0.679,-0.662,0.126,5.58,-12.63,-2.53
509710.781000,0.738,-0.497,0.169,11.63,15.11,4.49
509710.843000,0.666,-0.785,0.376,8.73,-2.11,43.92
509710.890000,0.726,-0.889,0.235,-6.99,-10.1,-2.9
509710.953000,0.721,-0.661,0.201,0.27,12.27,-19.78
509711.000000,0.684,-0.636,0.255,-9.55,22.71,-25.21
509711.046000,0.647,-0.693,0.321,-3.57,18.52,-12.57
509711.093000,0.648,-0.71,0.338,-7.63,11.87,-8.82
509711.140000,0.7,-0.623,0.31,-6.87,0.55,-19.81
509711.187000,0.688,-0.61,0.263,-7.57,4.39,-12.3
509711.234000,0.697,-0.615,0.303,-3.54,10.01,-2.32
509711.296000,0.677,-0.728,0.301,0.15,7.23,-2.78
509711.343000,0.702,-0.665,0.318,1.31,3.94,-12.6
509711.390000,0.737,-0.593,0.274,-10.22,-5.31,-25.09
509711.437000,0.721,-0.617,0.265,1.74,4.82,-4.61
509711.484000,0.729,-0.606,0.287,7.75,13.4,-2.32
509711.531000,0.714,-0.61,0.328,7.05,16.82,-3.91
509711.578000,0.731,-0.641,0.331,16.05,25.94,-6.78
509711.625000,0.73,-0.607,0.367,10.99,24.17,-13.95
509711.671000,0.726,-0.559,0.371,11.05,18.68,-15.41
509711.718000,0.73,-0.529,0.396,6.47,11.54,-6.35
509711.765000,0.751,-0.511,0.37,4.94,9.34,-3.94
509711.812000,0.719,-0.539,0.431,2.96,17.43,0.46
509711.859000,0.712,-0.577,0.387,2.23,5.58,4.36
509711.906000,0.683,-0.504,0.452,-2.41,10.65,1.56
509711.953000,0.688,-0.566,0.392,-9.86,-4.85,10.38
509712.000000,0.687,-0.651,0.422,10.8,6.29,18.28
509712.046000,0.693,-0.654,0.391,-4.94,-5.92,-1.04
509712.093000,0.74,-0.598,0.301,-1.83,-0.89,-3.48
509712.140000,0.746,-0.529,0.351,-9.64,13.31,-8.09
509712.187000,0.765,-0.598,0.405,-4.46,14.1,4.55
509712.234000,0.707,-0.666,0.469,1.37,10.86,5.95
509712.281000,0.683,-0.627,0.444,-2.04,7.97,-13.15
509712.328000,0.645,-0.57,0.391,-1.07,6.29,-9.37
509712.375000,0.653,-0.542,0.413,-2.01,12.09,-5.86
509712.421000,0.673,-0.578,0.464,-6.47,10.71,10.86
509712.468000,0.686,-0.643,0.495,-7.17,8.27,4.21
509712.515000,0.659,-0.621,0.469,-0.06,-0.67,-4.76
509712.562000,0.627,-0.57,0.448,6.07,-4.43,-3.94
509712.609000,0.655,-0.579,0.365,6.62,-16.02,4.39
509712.656000,0.715,-0.502,0.322,-8.06,-10.9,-3.14
509712.703000,0.727,-0.495,0.371,-8.12,1.31,16.17
509712.750000,0.739,-0.703,0.441,-8.36,8.36,16.63
509712.796000,0.726,-0.709,0.46,-5.28,9.4,6.07
509712.843000,0.705,-0.646,0.454,1.28,9.8,-2.96
509712.890000,0.643,-0.612,0.453,8.82,13.4,-5.1
509712.937000,0.619,-0.59,0.461,11.96,8.76,-3.45
509712.984000,0.63,-0.588,0.439,13.95,4.91,-1.28
509713.031000,0.669,-0.563,0.447,19.65,11.05,4.18
509713.078000,0.653,-0.543,0.503,18.43,10.38,7.97
509713.125000,0.682,-0.603,0.468,10.9,1.28,7.17
509713.171000,0.689,-0.59,0.465,6.32,7.57,-0.4
509713.218000,0.68,-0.563,0.498,0.98,9.67,0.55
509713.265000,0.655,-0.599,0.53,-2.59,9.31,1.13
509713.312000,0.65,-0.597,0.524,-7.6,-1.07,-0.82
509713.359000,0.653,-0.601,0.494,-9.0,-5.07,-1.74
509713.406000,0.655,-0.612,0.463,-8.91,-5.13,-2.26
509713.453000,0.656,-0.599,0.475,-6.56,-3.45,-0.34
509713.500000,0.664,-0.588,0.457,-11.14,-8.21,-2.69
509713.546000,0.67,-0.626,0.443,-9.7,-5.34,-0.92
509713.593000,0.685,-0.605,0.445,-10.83,-2.75,-4.55
509713.640000,0.678,-0.593,0.461,-8.58,1.22,-3.78
509713.687000,0.658,-0.613,0.472,-8.36,0.73,-4.94
509713.734000,0.649,-0.594,0.472,-2.47,2.5,-4.58
509713.781000,0.635,-0.563,0.458,0.43,5.1,-7.75
509713.828000,0.601,-0.545,0.483,4.15,3.11,-2.14
509713.875000,0.594,-0.563,0.461,5.89,-5.62,2.44
509713.937000,0.61,-0.538,0.453,6.99,-11.87,12.21
509713.984000,0.666,-0.659,0.413,11.05,-21.3,23.38
509714.031000,0.737,-0.702,0.372,10.99,-10.8,13.58
509714.078000,0.754,-0.59,0.473,16.85,5.28,10.07
509714.125000,0.704,-0.588,0.49,10.71,-4.64,3.48
509714.171000,0.664,-0.662,0.411,11.23,-5.19,-0.09
509714.218000,0.635,-0.557,0.444,11.02,6.53,-3.17
509714.265000,0.639,-0.542,0.477,1.74,-0.98,6.38
509714.312000,0.7,-0.637,0.439,-2.59,-7.17,2.96
509714.359000,0.77,-0.613,0.408,-6.41,-1.1,-7.9
509714.406000,0.746,-0.568,0.411,-12.54,9.46,-12.48
509714.453000,0.693,-0.582,0.498,-17.15,10.68,-10.99
509714.500000,0.708,-0.6,0.489,-27.04,2.2,-18.83
509714.546000,0.711,-0.594,0.488,-27.44,8.82,-17.3
509714.593000,0.618,-0.593,0.502,-9.64,17.94,-14.77
509714.640000,0.513,-0.526,0.529,-6.5,8.09,-19.65
509714.687000,0.581,-0.485,0.466,-1.19,-5.16,1.83
509714.750000,0.673,-0.566,0.436,0.52,-13.92,15.96
509714.796000,0.722,-0.647,0.407,2.78,-17.43,17.15
509714.843000,0.744,-0.609,0.376,2.59,-10.04,3.45
509714.890000,0.685,-0.613,0.373,6.2,-7.11,7.42
509714.937000,0.644,-0.609,0.408,1.77,-3.69,4.3
509714.984000,0.671,-0.664,0.407,-1.68,-10.9,9.28
509715.031000,0.726,-0.655,0.367,-3.6,-12.15,2.66
509715.078000,0.733,-0.598,0.378,-7.57,-1.83,-2.69
509715.125000,0.684,-0.622,0.434,-6.04,4.03,-1.62
509715.171000,0.658,-0.626,0.454,-5.68,-3.14,-4.24
509715.218000,0.69,-0.641,0.399,-1.46,-4.97,-4.24
509715.265000,0.687,-0.636,0.421,2.9,-0.21,-1.8
509715.312000,0.683,-0.656,0.439,10.16,1.98,-1.59
509715.359000,0.677,-0.587,0.388,10.53,5.55,-8.91
509715.406000,0.677,-0.484,0.387,9.77,0.18,-5.58
509715.453000,0.683,-0.505,0.327,2.23,-5.77,-2.81
509715.500000,0.703,-0.515,0.362,4.15,-0.58,4.21
509715.546000,0.695,-0.678,0.315,-0.95,-13.15,15.47
509715.593000,0.739,-0.644,0.371,-6.13,-9.8,-1.98
509715.640000,0.741,-0.629,0.393,-2.59,-11.32,1.37
509715.687000,0.667,-0.673,0.425,22.25,-6.71,4.88
509715.734000,0.704,-0.517,0.395,20.72,-20.78,-8.27
509715.781000,0.802,-0.537,0.321,10.56,-30.7,19.99
509715.828000,0.834,-0.635,0.188,12.24,-4.43,14.13
509715.875000,0.723,-0.502,0.412,-0.55,24.96,0.73
509715.921000,0.711,-0.649,0.38,-4.64,9.31,5.07
509715.984000,0.671,-0.403,0.583,8.76,26.4,-30.21
509716.031000,0.581,-0.946,0.574,-10.44,-54.05,65.28
509716.078000,0.715,-0.804,0.093,18.68,-12.48,-17.88
509716.125000,0.652,-0.29,0.354,-26.73,-19.38,-55.39
509716.171000,0.741,-0.435,0.381,-3.14,-15.56,25.79
509716.218000,0.755,-0.696,0.328,4.09,-2.2,19.53
509716.265000,0.675,-0.62,0.368,2.96,7.75,-3.81
509716.312000,0.667,-0.646,0.386,13.43,-0.15,13.15
509716.359000,0.694,-0.641,0.324,1.16,-6.47,-3.33
509716.406000,0.748,-0.616,0.312,1.65,-2.41,1.43
509716.453000,0.738,-0.609,0.309,3.42,0.31,2.53
509716.500000,0.746,-0.582,0.314,-6.47,-2.04,-6.81
509716.546000,0.754,-0.568,0.316,-4.3,3.63,-2.17
509716.593000,0.784,-0.571,0.321,-7.57,3.88,-2.75
509716.640000,0.785,-0.582,0.341,-7.9,8.85,-2.29
509716.687000,0.725,-0.58,0.389,-0.76,20.08,-4.91
509716.734000,0.659,-0.488,0.434,7.81,25.39,-9.37
509716.781000,0.654,-0.296,0.584,0.0,44.68,-7.51
509716.828000,0.603,-0.998,0.316,16.82,-13.34,58.23
509716.875000,0.681,-0.738,0.376,22.8,14.19,-14.04
509716.921000,0.728,-0.391,0.393,-14.01,-16.24,-25.76
509716.968000,0.763,-0.549,0.363,11.75,-8.76,24.72
509717.015000,0.704,-0.722,0.395,-2.32,-0.24,1.43
509717.062000,0.635,-0.597,0.424,10.68,8.03,-9.98
509717.109000,0.648,-0.494,0.433,6.71,2.44,-3.72
509717.156000,0.688,-0.618,0.391,5.01,-4.55,13.49
509717.203000,0.778,-0.654,0.345,0.58,-8.27,2.29
509717.250000,0.78,-0.578,0.311,-7.08,-2.01,-9.95
509717.296000,0.72,-0.601,0.371,-3.91,15.26,0.79
509717.343000,0.67,-0.632,0.437,-3.3,13.0,-4.09
509717.390000,0.658,-0.541,0.466,-4.43,9.74,-8.15
509717.437000,0.658,-0.594,0.408,1.16,6.74,-1.25
509717.484000,0.634,-0.552,0.432,2.44,10.32,-9.89
509717.531000,0.664,-0.531,0.437,3.94,0.18,-5.62
509717.578000,0.744,-0.545,0.425,-2.01,-6.1,-2.11
509717.625000,0.829,-0.584,0.389,-11.6,-11.72,4.58
509717.671000,0.804,-0.687,0.326,-12.3,3.63,5.58
509717.718000,0.751,-0.664,0.367,-3.75,24.81,-0.15
509717.765000,0.611,-0.542,0.524,-4.46,32.11,-10.01
509717.812000,0.596,-0.561,0.561,-0.24,14.62,-4.15
509717.875000,0.669,-0.576,0.472,2.81,-10.28,-8.73
509717.921000,0.779,-0.506,0.356,-0.18,-12.05,-7.57
509717.968000,0.787,-0.548,0.359,-0.21,7.23,2.59
509718.015000,0.76,-0.599,0.393,-1.37,15.29,4.15
509718.062000,0.634,-0.554,0.497,-1.01,23.29,-3.63
509718.109000,0.593,-0.548,0.532,5.22,18.1,-0.55
509718.156000,0.592,-0.544,0.537,3.6,4.3,-1.37
509718.203000,0.646,-0.54,0.496,5.19,-8.64,2.38
509718.250000,0.741,-0.569,0.422,1.5,-12.63,2.78
509718.312000,0.773,-0.559,0.39,0.58,5.04,-0.52
509718.359000,0.689,-0.539,0.462,0.12,15.84,-1.22
509718.406000,0.635,-0.556,0.501,0.52,13.15,-0.43
509718.453000,0.72,-0.443,0.437,-18.62,2.69,-11.6
509718.500000,0.646,-0.387,0.494,-16.57,1.68,7.23
509718.546000,0.662,-0.684,0.548,-50.54,-29.27,6.9
509718.593000,0.743,-0.932,0.385,-44.89,-40.04,6.04
509718.640000,0.789,-0.674,0.358,-10.16,9.83,-25.61
509718.687000,0.713,-0.566,0.344,5.74,4.06,-7.48
509718.734000,0.697,-0.533,0.245,-2.81,0.58,-23.9
509718.781000,0.759,-0.38,0.295,-27.16,-3.3,-32.56
509718.828000,0.745,-0.535,0.429,-12.05,14.07,27.83
509718.875000,0.657,-0.697,0.529,-0.92,22.46,6.47
509718.921000,0.622,-0.535,0.487,8.09,-1.77,-10.93
509718.968000,0.676,-0.475,0.55,5.65,0.27,11.54
509719.015000,0.686,-0.582,0.512,20.26,-13.4,23.83
509719.062000,0.704,-0.551,0.366,-6.16,-38.91,-4.55
509719.109000,0.758,-0.542,0.296,2.93,-24.66,8.45
509719.171000,0.752,-0.557,0.292,0.49,-16.42,1.01
509719.218000,0.694,-0.564,0.308,5.58,-4.64,5.65
509719.265000,0.679,-0.602,0.317,7.14,-5.04,11.96
509719.312000,0.716,-0.633,0.332,4.64,-7.48,13.86
509719.359000,0.81,-0.587,0.343,13.21,-2.41,10.47
509719.406000,0.8,-0.763,0.467,-17.91,-20.39,29.15
509719.453000,0.788,-0.793,0.267,28.5,-0.61,13.0
509719.500000,0.725,-0.524,0.306,0.09,0.4,-29.36
509719.546000,0.665,-0.512,0.373,17.09,11.78,7.9
509719.593000,0.646,-0.644,0.412,13.61,6.41,4.49
509719.640000,0.7,-0.613,0.349,12.76,-13.18,0.06
509719.687000,0.738,-0.577,0.291,8.39,-10.16,-1.59
509719.734000,0.726,-0.581,0.281,7.14,-3.14,3.45
509719.781000,0.693,-0.601,0.344,2.56,3.91,1.34
509719.843000,0.696,-0.622,0.359,-2.38,-2.78,0.64
509719.906000,0.687,-0.582,0.371,-7.57,-11.26,2.32
509719.968000,0.707,-0.599,0.298,-12.88,-26.15,11.93
509720.015000,0.743,-0.668,0.265,-6.5,-5.77,6.87
509720.062000,0.751,-0.643,0.254,0.49,7.29,1.07
509720.109000,0.71,-0.638,0.309,-1.37,17.09,0.37
509720.156000,0.692,-0.733,0.302,2.11,16.36,0.67
509720.203000,0.692,-0.662,0.337,5.58,24.69,-9.4
509720.250000,0.683,-0.498,0.411,4.39,20.33,2.93
509720.296000,0.672,-0.579,0.407,-8.97,16.36,8.79
509720.343000,0.631,-0.626,0.452,-17.27,12.57,2.81
509720.390000,0.647,-0.651,0.43,-5.31,6.38,8.88
509720.437000,0.67,-0.647,0.398,-12.27,-2.84,-1.5
509720.484000,0.692,-0.665,0.323,-7.23,-2.11,0.79
509720.531000,0.693,-0.651,0.327,-12.09,-5.83,-1.31
509720.578000,0.651,-0.681,0.351,-11.66,-1.59,-1.56
509720.625000,0.7,-0.677,0.397,-8.0,-11.93,-0.46
509720.671000,0.768,-0.652,0.319,-1.86,-8.15,-3.36
509720.718000,0.756,-0.634,0.375,3.78,8.03,-2.23
509720.765000,0.705,-0.74,0.428,14.13,13.61,1.86
509720.812000,0.678,-0.723,0.437,18.52,9.86,-13.58
509720.859000,0.668,-0.625,0.38,29.05,5.46,-17.98
509720.906000,0.65,-0.592,0.335,29.45,5.37,-13.86
509720.953000,0.625,-0.547,0.334,28.63,7.48,-15.2
509721.000000,0.593,-0.484,0.4,17.03,2.14,-12.51
509721.046000,0.679,-0.509,0.363,4.18,-10.41,-19.26
509721.093000,0.808,-0.537,0.325,4.55,-3.3,-12.39
509721.140000,0.838,-0.528,0.439,9.4,14.59,-0.34
509721.187000,0.829,-0.649,0.557,1.71,18.25,-3.3
509721.234000,0.834,-0.616,0.443,9.92,2.87,-32.53
509721.281000,0.954,-0.486,0.285,-6.35,4.06,-75.32
509721.328000,0.841,-0.473,0.431,1.34,32.84,-85.51
509721.375000,0.7,-0.456,0.563,37.72,16.48,-46.45
509721.421000,0.607,-0.357,0.474,-10.07,-20.87,-64.82
509721.468000,0.692,-0.231,0.453,-5.22,-28.44,-53.04
509721.515000,0.776,-0.218,0.422,-8.33,-35.49,-39.4
509721.562000,0.852,-0.203,0.388,-21.0,-22.95,-34.7
509721.609000,0.906,-0.261,0.364,-30.52,-14.95,-30.21
509721.656000,0.928,-0.266,0.306,-33.27,3.08,-34.61
509721.703000,1.045,-0.102,0.115,-26.86,31.5,-43.55
509721.750000,0.942,-0.065,0.179,-42.02,83.07,-41.78
509721.796000,0.739,-0.29,0.617,-35.19,106.14,2.5
509721.843000,0.665,-0.268,0.756,-53.99,70.07,-27.92
509721.890000,0.717,-0.228,0.748,-27.28,18.43,-20.29
509721.937000,0.73,-0.185,0.657,-6.81,2.2,-16.24
509721.984000,0.716,-0.175,0.66,4.06,-4.39,-0.37
509722.031000,0.728,-0.224,0.595,0.82,-14.37,13.18
509722.078000,0.793,-0.181,0.527,1.46,-11.2,8.24
509722.125000,0.819,-0.186,0.531,-0.37,-9.74,12.73
509722.171000,0.887,-0.247,0.523,-0.46,-3.94,11.23
509722.218000,0.869,-0.259,0.52,1.25,1.89,4.43
509722.265000,0.883,-0.245,0.536,3.75,13.52,-12.97
509722.312000,0.836,-0.228,0.527,4.94,32.53,-19.53
509722.359000,0.737,-0.23,0.637,18.4,39.46,-9.13
509722.406000,0.674,-0.126,0.626,11.96,9.4,-11.08
509722.453000,0.709,-0.131,0.571,8.97,-6.78,4.52
509722.500000,0.805,-0.162,0.51,-0.03,-9.52,11.93
509722.546000,0.85,-0.148,0.488,-20.08,-2.41,10.25
509722.593000,0.836,-0.217,0.57,-23.16,8.91,12.42
509722.640000,0.796,-0.268,0.617,-22.25,9.4,8.51
509722.687000,0.761,-0.303,0.643,-12.6,5.68,1.28
509722.734000,0.758,-0.307,0.609,-5.65,-1.25,-2.35
509722.781000,0.782,-0.227,0.583,-2.47,-4.24,-7.69
509722.828000,0.784,-0.214,0.576,-2.35,-3.91,-3.05
509722.875000,0.763,-0.223,0.584,-2.5,0.82,-2.56
509722.921000,0.726,-0.198,0.622,-2.72,1.89,1.5
509722.968000,0.697,-0.252,0.639,6.53,-7.11,11.29
509723.015000,0.754,-0.214,0.63,7.08,-17.37,2.87
509723.062000,0.804,-0.214,0.646,13.76,-15.32,11.32
509723.109000,0.746,-0.234,0.79,33.48,-0.58,31.43
509723.156000,0.585,-0.227,0.971,83.44,17.64,85.18
509723.203000,0.394,-0.319,1.282,161.14,43.61,176.37
509723.250000,0.231,-0.224,1.664,146.31,-46.85,112.61
509723.296000,0.43,-0.051,1.264,116.64,-185.22,92.1
509723.343000,0.624,0.323,0.827,-37.39,-203.25,-1.04
509723.390000,0.658,0.267,0.599,-122.5,-183.9,20.42
509723.437000,0.358,0.067,-0.129,-209.66,-105.04,10.28
509723.484000,-0.241,-0.138,-0.605,-317.82,-186.01,-93.75
509723.531000,1.128,0.649,-3.721,-379.16,-397.05,-293.04
509723.578000,1.044,-1.318,-1.172,83.77,12.91,322.37
509723.625000,0.609,-0.406,-0.464,19.38,17.98,-113.1
509723.671000,0.764,0.237,-0.297,19.1,-43.12,-15.44
509723.718000,0.905,-0.251,-0.596,16.72,-50.36,6.04
509723.765000,0.93,-0.147,-0.586,7.9,-16.02,-18.34
509723.812000,0.867,-0.17,-0.546,22.28,14.77,-21.06
509723.859000,0.892,-0.032,-0.461,18.46,10.13,-27.56
509723.906000,0.84,-0.045,-0.402,14.37,5.28,6.68
509723.953000,0.892,-0.17,-0.432,3.57,-8.06,-8.79
509724.000000,0.869,-0.169,-0.402,3.69,3.23,-5.13
509724.046000,0.884,-0.176,-0.434,0.15,-1.59,-14.77
509724.093000,0.874,-0.103,-0.443,-19.56,-0.82,-56.92
509724.140000,0.878,-0.029,-0.417,1.01,2.9,-20.66
509724.187000,0.879,-0.047,-0.427,-2.44,0.95,-12.33
509724.250000,0.897,-0.067,-0.444,-6.13,1.92,-6.59
509724.296000,0.87,-0.073,-0.428,-4.85,3.11,-5.74
509724.343000,0.843,-0.095,-0.439,3.54,6.84,3.27
509724.390000,0.852,-0.07,-0.411,1.5,3.57,-3.78
509724.437000,0.893,-0.017,-0.432,-2.9,0.79,-10.62
509724.484000,0.873,-0.044,-0.416,-1.31,3.17,-1.19
509724.531000,0.864,-0.047,-0.419,-3.78,0.67,-4.7
509724.593000,0.882,-0.073,-0.422,-1.28,-1.77,2.62
509724.640000,0.878,-0.081,-0.427,0.7,1.22,2.69
509724.703000,0.909,-0.052,-0.444,-0.24,-1.4,-5.71
509724.750000,0.889,-0.046,-0.432,0.7,3.69,-1.22
509724.812000,0.864,-0.051,-0.414,1.04,2.23,-1.37
509724.859000,0.872,-0.088,-0.427,2.59,3.14,3.27
509724.906000,0.871,-0.052,-0.407,4.09,2.72,0.03
509724.953000,0.871,-0.044,-0.408,3.08,2.17,-0.43
509725.000000,0.88,-0.032,-0.409,0.85,1.31,-0.4
509725.046000,0.875,-0.046,-0.417,0.46,-1.59,4.61
509725.093000,0.883,-0.081,-0.429,-1.34,0.27,-3.42
509725.140000,0.877,-0.06,-0.421,1.98,0.27,0.24
509725.187000,0.885,-0.065,-0.411,2.32,0.09,2.04
509725.234000,0.875,-0.037,-0.41,1.8,-0.98,2.04
509725.281000,0.869,-0.061,-0.41,10.59,1.37,14.56
509725.328000,0.849,-0.064,-0.387,1.1,1.1,-4.46
509725.375000,0.899,-0.06,-0.458,-2.72,-5.71,2.01
509725.421000,0.917,-0.101,-0.446,3.23,-1.56,9.92
509725.468000,0.916,-0.132,-0.462,3.08,0.79,0.21
509725.515000,0.906,-0.097,-0.447,3.3,5.65,-3.27
509725.562000,0.88,-0.075,-0.413,3.3,4.49,0.09
509725.609000,0.853,-0.076,-0.39,4.7,3.45,5.34
509725.656000,0.826,-0.059,-0.36,1.65,-0.64,7.84
509725.703000,0.838,-0.05,-0.368,-6.84,-2.38,2.62
509725.750000,0.877,-0.107,-0.412,-12.18,-11.78,2.99
509725.796000,0.9,-0.152,-0.455,-1.07,-4.15,4.43
509725.843000,0.9,-0.119,-0.434,-1.77,-3.2,-1.31
509725.890000,0.907,-0.105,-0.431,-0.76,-2.53,2.56
509725.937000,0.892,-0.102,-0.438,0.67,-2.87,5.83
509725.984000,0.874,-0.137,-0.441,-0.7,0.15,0.92
509726.031000,0.858,-0.115,-0.437,3.36,1.43,0.82
509726.078000,0.855,-0.117,-0.443,6.81,1.16,2.69
509726.125000,0.858,-0.154,-0.437,9.52,1.89,2.26
509726.171000,0.872,-0.198,-0.444,18.4,3.36,-1.28
509726.218000,0.904,-0.213,-0.478,27.59,8.39,-16.66
509726.265000,0.896,-0.073,-0.458,34.97,15.14,-17.12
509726.312000,0.873,-0.052,-0.397,34.0,17.94,-6.2
509726.359000,0.882,-0.03,-0.37,19.53,9.7,-14.28
509726.406000,0.898,-0.036,-0.374,12.57,5.25,-2.69
509726.453000,0.885,-0.077,-0.388,8.67,6.32,3.39
509726.500000,0.862,-0.153,-0.4,10.77,6.96,3.91
509726.546000,0.808,-0.231,-0.523,33.11,11.23,-0.7
509726.593000,0.557,-0.204,-0.745,71.78,8.79,27.41
509726.656000,0.513,-0.372,-1.04,137.42,25.85,11.57
509726.703000,0.646,-0.123,-0.759,117.19,24.72,-6.65
509726.750000,0.91,-0.122,-0.189,122.59,27.71,31.31
509726.796000,1.068,-0.107,-0.165,49.9,9.34,-5.13
509726.843000,1.048,-0.183,0.098,85.82,72.3,36.84
509726.906000,0.818,-0.386,0.575,85.67,85.85,115.18
509726.968000,0.731,-0.397,0.537,-34.27,44.16,80.94
509727.015000,0.997,-0.396,0.01,-40.53,-32.26,50.63
509727.062000,1.27,-0.458,-0.317,-63.97,12.12,43.43
509727.109000,1.014,-0.765,-0.178,-43.09,96.22,99.06
509727.156000,0.775,-1.062,0.09,-33.05,155.86,60.58
509727.203000,0.62,-0.859,0.373,-48.25,124.3,-20.87
509727.250000,0.578,-0.693,0.428,-19.07,76.78,-21.15
509727.296000,0.628,-0.666,0.285,-25.82,22.83,-41.69
509727.343000,0.667,-0.698,0.196,-4.49,30.34,-15.72
509727.390000,0.759,-0.598,0.17,-16.42,35.19,-29.45
509727.437000,0.728,-0.528,0.198,-15.41,46.11,-17.3
509727.484000,0.739,-0.62,0.219,-20.87,39.09,-0.09
509727.531000,0.85,-0.631,0.215,-30.73,26.67,-13.76
509727.578000,0.882,-0.537,0.065,-54.6,42.15,-30.06
509727.640000,0.688,-0.723,0.257,-26.22,78.28,12.33
509727.687000,0.527,-0.698,0.449,-30.12,59.21,-18.56
509727.734000,0.507,-0.63,0.449,-21.76,21.85,-16.27
509727.781000,0.562,-0.617,0.403,-2.2,0.15,3.72
509727.828000,0.662,-0.669,0.327,-4.43,-15.53,8.33
509727.875000,0.739,-0.663,0.286,5.92,-11.75,12.88
509727.921000,0.8,-0.649,0.232,3.81,-7.66,3.11
509727.968000,0.79,-0.64,0.229,2.2,-1.89,1.16
509728.015000,0.754,-0.637,0.223,-0.18,5.83,-5.58
509728.062000,0.696,-0.607,0.266,-6.01,3.14,-4.82
509728.109000,0.703,-0.652,0.221,-2.78,-3.91,1.62
509728.156000,0.698,-0.584,0.237,-8.76,2.69,-5.01
509728.203000,0.697,-0.579,0.273,-3.11,3.48,8.85
509728.250000,0.689,-0.666,0.312,0.18,-0.24,18.01
509728.296000,0.69,-0.729,0.305,8.39,0.58,14.71
509728.343000,0.698,-0.687,0.34,7.29,3.91,1.01
509728.390000,0.704,-0.68,0.335,15.87,-4.58,3.85
509728.437000,0.686,-0.726,0.262,21.61,-14.13,5.83
509728.484000,0.712,-0.664,0.196,18.56,-16.85,-7.9
509728.531000,0.721,-0.584,0.193,10.71,-11.6,-8.58
509728.578000,0.711,-0.607,0.186,6.78,-1.83,4.21
509728.625000,0.706,-0.607,0.211,1.1,-0.85,1.46
509728.671000,0.775,-0.596,0.225,-21.15,1.95,-5.37
509728.718000,0.732,-0.71,0.209,-6.35,8.21,21.58
509728.765000,0.676,-0.71,0.253,1.25,20.78,17.4
509728.812000,0.621,-0.674,0.368,-8.03,15.08,-2.11
509728.859000,0.683,-0.699,0.316,-0.64,-2.84,7.97
509728.906000,0.733,-0.709,0.287,-4.15,-9.22,4.39
509728.953000,0.763,-0.707,0.227,-6.65,-6.74,-5.62
509729.000000,0.736,-0.688,0.232,-0.98,16.21,-6.59
509729.046000,0.662,-0.657,0.295,-0.76,26.43,-8.97
509729.093000,0.633,-0.655,0.353,-0.34,22.68,-7.66
509729.140000,0.646,-0.652,0.348,2.29,7.17,-3.54
509729.187000,0.617,-0.722,0.323,9.55,-6.62,1.19
509729.234000,0.637,-0.738,0.32,17.33,-9.86,1.34
509729.281000,0.777,-0.616,0.197,-7.9,-10.86,-42.79
509729.328000,0.819,-0.574,0.191,-9.46,17.76,-40.07
509729.375000,0.847,-0.681,0.227,-14.95,43.18,-51.03
509729.421000,0.823,-0.637,0.37,-24.66,49.78,-103.61
509729.468000,0.859,-0.454,0.393,-7.45,35.46,-88.05
509729.515000,0.758,-0.316,0.347,23.96,51.33,-38.67
509729.562000,0.635,-0.247,0.521,12.6,47.73,-14.4
509729.609000,0.624,-0.37,0.484,-0.73,-0.43,10.53
509729.656000,0.691,-0.454,0.444,-0.7,-13.0,11.38
509729.703000,0.789,-0.389,0.404,2.53,-22.55,12.42
509729.750000,0.834,-0.437,0.378,-4.09,-8.7,18.16
509729.796000,0.824,-0.504,0.395,0.27,-5.71,14.65
509729.843000,0.799,-0.452,0.414,-6.5,-6.9,-0.46
509729.890000,0.807,-0.476,0.391,-1.77,-9.25,4.58
509729.937000,0.813,-0.476,0.348,0.64,-6.01,1.53
509729.984000,0.802,-0.465,0.379,2.08,-1.92,1.68
509730.031000,0.797,-0.458,0.381,0.55,-2.23,-0.95
509730.078000,0.796,-0.47,0.379,1.95,-2.53,2.44
509730.125000,0.787,-0.478,0.382,2.81,-2.9,2.2
509730.171000,0.799,-0.461,0.364,1.31,-4.49,-0.18
509730.218000,0.81,-0.449,0.35,2.11,-2.17,1.56
509730.265000,0.828,-0.457,0.358,-2.29,-2.72,0.98
509730.312000,0.774,-0.327,0.464,-21.94,-3.97,-1.65
509730.359000,0.906,-0.67,0.356,-6.35,-41.08,17.67
509730.406000,0.96,-0.637,0.125,3.54,-27.99,-30.46
509730.453000,0.808,-0.272,0.26,-4.58,15.38,-34.76
509730.500000,0.714,-0.404,0.324,-12.05,22.98,8.06
509730.546000,0.699,-0.551,0.368,-4.79,20.11,15.66
509730.593000,0.704,-0.478,0.433,-1.92,-1.92,4.88
509730.640000,0.793,-0.496,0.36,11.6,-21.52,9.16
509730.687000,0.879,-0.386,0.359,7.32,-11.08,-3.91
509730.734000,0.908,-0.555,0.296,21.76,-16.21,29.21
509730.781000,0.904,-0.532,0.231,15.63,-0.64,-13.31
509730.828000,0.842,-0.384,0.25,13.86,13.52,-10.99
509730.875000,0.799,-0.353,0.29,1.37,19.23,1.34
509730.921000,0.754,-0.476,0.388,-0.46,15.9,11.6
509730.968000,0.758,-0.494,0.383,-3.66,2.14,0.49
509731.015000,0.792,-0.449,0.358,-3.78,0.76,-2.66
509731.062000,0.807,-0.433,0.367,-5.83,1.37,1.92
509731.109000,0.828,-0.501,0.351,-4.24,2.59,4.67
509731.156000,0.804,-0.48,0.38,0.15,5.52,-0.46
509731.203000,0.801,-0.453,0.389,0.24,2.81,1.74
509731.250000,0.789,-0.448,0.362,-0.34,3.63,1.74
509731.296000,0.812,-0.507,0.362,-1.68,5.25,2.62
509731.343000,0.819,-0.509,0.341,0.92,11.02,-4.97
509731.390000,0.8,-0.469,0.383,2.35,6.93,-6.07
509731.437000,0.781,-0.428,0.374,4.0,10.74,-6.71
509731.484000,0.76,-0.383,0.405,-2.66,9.49,-3.33
509731.531000,0.734,-0.369,0.417,0.31,11.6,6.74
509731.578000,0.729,-0.481,0.443,7.32,-3.27,34.85
509731.625000,0.826,-0.607,0.384,36.13,9.86,56.98
509731.671000,0.724,-0.53,0.581,-0.85,0.12,-3.48
509731.718000,0.799,-0.584,0.43,2.47,-28.38,-10.25
509731.765000,0.972,-0.459,0.298,-4.7,-14.65,-34.18
509731.812000,1.053,-0.309,0.352,-14.28,12.82,-31.43
509731.859000,0.923,-0.616,0.39,-6.59,49.04,-14.56
509731.906000,0.695,-0.652,0.49,-0.21,49.1,-49.07
509731.953000,0.561,-0.453,0.487,4.61,25.73,-66.38
509732.000000,0.574,-0.255,0.52,5.62,0.52,-36.77
509732.046000,0.635,-0.288,0.5,0.98,-14.98,-16.21
509732.093000,0.7,-0.346,0.454,0.67,-23.32,-1.31
509732.140000,0.897,-0.339,0.483,1.25,-19.62,12.45
509732.187000,0.822,-0.442,0.553,30.67,3.02,18.37
509732.234000,0.818,-0.285,0.498,23.13,-21.36,-15.2
509732.281000,0.925,-0.31,0.504,23.16,-0.7,6.26
509732.328000,0.721,-0.497,0.625,55.42,20.75,13.4
509732.375000,0.418,-0.347,0.711,68.18,-5.65,-3.63
509732.421000,0.221,-0.1,1.039,88.56,-51.73,64.46
509732.468000,0.284,-0.299,1.177,94.12,-117.04,131.47
509732.515000,0.398,-0.435,1.144,111.42,-158.88,139.07
509732.562000,0.876,-0.372,0.658,29.27,-204.54,29.85
509732.609000,1.185,-0.431,0.088,-0.73,-171.09,33.66
509732.656000,0.702,0.031,0.004,-128.51,-66.38,-71.35
509732.703000,0.5,0.113,-0.242,-160.41,-149.97,-24.75
509732.750000,0.613,-0.429,-1.265,-149.21,-238.53,99.73
509732.796000,0.808,-0.98,-1.904,-164.8,-162.48,38.24
509732.843000,0.796,-0.899,-1.274,-5.4,-22.61,75.38
509732.890000,0.497,-0.161,-0.383,11.2,36.81,-79.93
509732.937000,0.686,0.066,-0.453,-19.29,-21.36,-14.77
509732.984000,0.633,-0.331,-0.602,-22.13,-13.76,23.77
509733.031000,0.622,-0.344,-0.553,-25.3,-3.42,-13.28
509733.078000,0.68,-0.282,-0.529,-19.17,-2.01,-16.91
509733.125000,0.716,-0.294,-0.542,-14.56,-6.74,-8.82
509733.171000,0.725,-0.34,-0.556,-21.88,-7.11,-9.77
509733.218000,0.782,-0.304,-0.578,-8.94,-4.88,-1.16
509733.265000,0.739,-0.311,-0.557,-7.72,-2.14,1.71
509733.312000,0.798,-0.406,-0.559,-1.34,-3.14,19.17
509733.359000,0.7,-0.4,-0.57,-7.57,6.99,-21.18
509733.406000,0.789,-0.262,-0.513,-1.95,2.23,-15.9
509733.453000,0.776,-0.275,-0.456,-5.8,0.31,-7.63
509733.500000,0.721,-0.33,-0.59,-1.95,-5.28,6.68
509733.546000,0.771,-0.279,-0.539,-0.76,2.59,-10.59
509733.593000,0.795,-0.221,-0.526,-4.33,-4.52,-4.73
509733.640000,0.809,-0.269,-0.569,-5.4,2.04,8.3
509733.687000,0.801,-0.329,-0.548,-6.29,4.64,5.98
509733.734000,0.763,-0.296,-0.574,-11.2,9.52,-4.21
509733.781000,0.739,-0.28,-0.548,-11.44,25.06,3.94
509733.828000,0.716,-0.266,-0.491,-15.29,29.76,8.06
509733.875000,0.705,-0.32,-0.434,-18.77,16.45,0.34
509733.921000,0.725,-0.314,-0.525,-2.53,-3.88,4.61
509733.968000,0.812,-0.298,-0.487,19.07,14.83,-5.13
509734.015000,0.821,-0.215,-0.444,2.96,4.36,-13.92
509734.062000,0.832,-0.237,-0.537,-2.26,-11.08,10.13
509734.109000,0.833,-0.335,-0.535,1.4,-8.15,13.61
509734.156000,0.813,-0.311,-0.558,-4.3,-3.42,-2.32
509734.203000,0.795,-0.312,-0.511,5.22,0.34,-4.55
509734.250000,0.773,-0.215,-0.491,-5.55,10.13,-31.28
509734.312000,0.807,-0.232,-0.54,-3.08,-4.39,6.44
509734.375000,0.786,-0.341,-0.527,-1.71,-0.98,8.42
509734.421000,0.811,-0.268,-0.515,0.7,-0.37,0.06
509734.468000,0.799,-0.26,-0.527,-2.99,-6.13,2.44
509734.515000,0.78,-0.259,-0.534,-2.44,-1.1,4.58
509734.562000,0.79,-0.281,-0.533,-7.69,0.49,-4.18
509734.609000,0.787,-0.284,-0.527,-2.35,3.2,5.8
509734.656000,0.775,-0.296,-0.521,-2.62,5.16,-1.95
509734.703000,0.783,-0.279,-0.513,-1.62,-0.37,1.5
509734.750000,0.773,-0.271,-0.507,0.27,3.88,1.95
