t_monotonic,ax,ay,az,gx,gy,gz
573422.625000,-0.935,-0.135,-0.059,-0.58,-21.45,16.88
573422.671000,-1.019,-0.151,-0.056,-10.25,-8.91,18.49
573422.718000,-1.093,-0.258,0.081,-4.46,-17.12,27.65
573422.765000,-1.056,-0.176,0.06,-23.62,-19.71,-3.17
573422.812000,-0.903,-0.117,-0.036,-29.88,-33.66,-4.36
573422.859000,-0.918,-0.126,-0.027,-26.8,-7.84,11.05
573422.906000,-0.998,-0.104,0.061,-23.59,-8.79,10.83
573422.953000,-0.909,-0.229,-0.036,-21.85,8.15,5.71
573423.000000,-0.955,-0.086,0.049,-15.23,1.43,-10.93
573423.046000,-0.956,-0.042,-0.021,-11.96,15.96,1.07
573423.093000,-1.01,-0.214,0.026,12.63,-10.28,34.76
573423.140000,-0.972,-0.158,-0.001,5.1,10.74,-2.41
573423.187000,-1.076,-0.184,0.027,36.1,-12.97,24.48
573423.234000,-1.036,-0.107,0.072,27.13,-11.93,-17.3
573423.281000,-1.011,0.075,0.084,37.23,-25.7,2.78
573423.328000,-1.057,-0.045,0.14,37.93,-28.35,24.38
573423.375000,-1.026,-0.161,0.087,39.8,-52.55,31.34
573423.421000,-1.072,-0.147,0.151,21.85,-38.21,-0.55
573423.468000,-1.089,-0.157,0.23,28.72,-56.43,-8.88
573423.515000,-1.014,-0.309,0.237,63.84,-95.8,-29.6
573423.562000,-1.062,0.096,0.261,45.41,-74.13,-61.49
573423.609000,-1.183,-0.009,0.53,-12.57,-75.9,-28.96
573423.656000,-1.119,0.022,0.466,-14.1,-135.65,-56.55
573423.703000,-0.898,0.046,0.494,-6.38,-149.51,-17.3
573423.750000,-0.827,0.013,0.626,-18.59,-156.07,-3.08
573423.796000,-0.553,-0.164,0.571,-6.23,-190.95,18.74
573423.843000,-0.411,-0.247,0.62,-2.5,-144.23,10.01
573423.890000,-0.311,-0.282,0.631,14.31,-92.32,12.3
573423.937000,-0.362,-0.144,0.755,-21.24,-29.05,-2.14
573423.984000,-0.393,-0.376,0.742,1.16,-32.01,15.5
573424.031000,-0.389,-0.217,0.764,-14.77,3.17,-15.72
573424.078000,-0.404,-0.222,0.867,-4.85,6.32,-0.21
573424.125000,-0.421,-0.261,0.889,5.74,-1.53,-10.59
573424.171000,-0.437,-0.212,0.917,-1.22,1.74,-21.33
573424.218000,-0.42,-0.183,0.838,20.48,3.48,-13.34
573424.265000,-0.401,-0.189,0.726,3.05,68.97,-19.71
573424.312000,-0.49,-0.113,0.758,29.57,81.91,-13.06
573424.359000,-0.533,-0.322,0.661,27.95,83.9,-25.21
573424.406000,-0.704,0.106,0.826,-16.75,110.57,-15.5
573424.453000,-0.654,-0.193,0.635,-27.41,77.55,33.6
573424.500000,-0.686,-0.246,0.642,-17.49,80.51,8.21
573424.546000,-0.772,-0.148,0.625,-6.26,62.93,18.43
573424.593000,-0.899,-0.22,0.744,0.21,44.71,18.68
573424.640000,-0.857,-0.222,0.65,3.69,9.0,9.55
573424.687000,-0.842,-0.23,0.583,-6.2,13.73,9.19
573424.734000,-0.883,-0.194,0.598,9.55,-9.8,1.98
573424.781000,-0.794,-0.149,0.549,1.59,3.63,-3.57
573424.828000,-0.801,-0.061,0.61,6.16,0.76,0.85
573424.875000,-0.817,-0.127,0.602,0.79,-7.05,1.5
573424.921000,-0.798,-0.166,0.592,1.77,-8.64,-4.03
573424.968000,-0.772,-0.221,0.513,0.55,-12.51,-3.97
573425.015000,-0.853,-0.178,0.583,5.37,-1.43,-10.86
573425.062000,-0.867,-0.15,0.557,-6.32,-8.27,-9.61
573425.109000,-0.882,-0.14,0.596,-15.47,-27.38,-10.07
573425.156000,-0.938,-0.067,0.609,-29.15,-51.85,-6.5
573425.203000,-0.853,-0.165,0.608,-60.34,-90.33,6.99
573425.250000,-0.728,-0.206,0.563,-28.02,-90.37,2.9
573425.296000,-0.687,-0.123,0.709,-34.64,-58.08,3.97
573425.343000,-0.612,-0.289,0.785,-25.67,-95.43,21.09
573425.390000,-0.444,-0.37,0.762,-0.34,-67.42,14.62
573425.437000,-0.393,-0.273,0.822,15.32,-32.81,2.53
573425.484000,-0.375,-0.274,0.871,24.17,-17.98,1.01
573425.531000,-0.362,-0.244,0.865,9.98,9.86,-2.44
573425.578000,-0.431,-0.246,0.905,-0.76,20.45,-1.07
573425.625000,-0.505,-0.286,0.931,-14.71,17.4,-5.31
573425.671000,-0.539,-0.283,0.922,-9.22,10.04,-9.03
573425.718000,-0.522,-0.245,0.859,-28.66,-1.59,-8.27
573425.765000,-0.527,-0.299,0.829,-50.51,14.53,-1.62
573425.812000,-0.565,-0.324,0.852,-33.6,11.99,-4.18
573425.859000,-0.575,-0.345,0.776,-37.05,8.42,-0.09
573425.906000,-0.577,-0.387,0.754,-22.95,7.72,-6.68
573425.953000,-0.565,-0.387,0.681,-30.61,19.41,-4.94
573426.000000,-0.588,-0.419,0.709,-12.57,14.37,-9.67
573426.046000,-0.558,-0.429,0.629,-8.79,16.21,-8.58
573426.093000,-0.535,-0.402,0.584,-21.21,30.46,-6.65
573426.140000,-0.554,-0.463,0.661,14.98,26.15,-5.31
573426.203000,-0.593,-0.441,0.652,24.14,45.29,-4.64
573426.250000,-0.667,-0.397,0.74,21.15,44.92,-8.12
573426.296000,-0.685,-0.378,0.702,15.72,29.11,-5.01
573426.343000,-0.696,-0.375,0.734,5.19,18.28,-2.01
573426.390000,-0.68,-0.38,0.687,-6.5,8.09,0.49
573426.437000,-0.669,-0.385,0.685,-9.7,8.7,0.85
573426.484000,-0.685,-0.386,0.651,-15.17,7.39,4.82
573426.531000,-0.675,-0.39,0.634,-21.61,8.06,4.21
573426.578000,-0.677,-0.378,0.616,-16.08,6.16,4.33
573426.625000,-0.673,-0.385,0.56,-15.59,2.35,13.4
573426.671000,-0.671,-0.378,0.556,-14.65,6.68,16.57
573426.718000,-0.71,-0.37,0.561,-22.74,8.42,22.31
573426.765000,-0.723,-0.38,0.557,-27.41,4.49,27.01
573426.812000,-0.774,-0.396,0.619,-23.04,1.01,37.54
573426.859000,-0.75,-0.41,0.627,-22.34,-2.62,39.43
573426.906000,-0.809,-0.382,0.768,1.89,6.1,47.7
573426.953000,-0.808,-0.372,0.804,5.07,-6.59,38.39
573427.000000,-0.822,-0.321,0.755,-4.88,-35.89,7.93
573427.046000,-0.805,-0.297,0.632,2.9,-39.98,5.22
573427.093000,-0.773,-0.261,0.563,-2.29,-39.22,-1.8
573427.140000,-0.777,-0.254,0.528,-12.73,-29.48,4.82
573427.187000,-0.807,-0.291,0.491,-26.34,-25.36,15.2
573427.234000,-0.797,-0.376,0.482,-35.62,-23.77,35.62
573427.281000,-0.703,-0.41,0.469,-83.35,-9.7,17.98
573427.328000,-0.665,-0.451,0.504,-87.53,1.25,7.39
573427.375000,-0.698,-0.557,0.606,-59.72,37.75,11.14
573427.421000,-0.722,-0.564,0.657,-46.08,30.24,-12.63
573427.468000,-0.661,-0.616,0.494,-8.82,16.66,-33.75
573427.515000,-0.705,-0.616,0.449,31.95,33.27,-45.9
573427.562000,-0.727,-0.651,0.45,69.0,33.88,-54.6
573427.609000,-0.668,-0.501,0.37,102.08,27.92,-63.05
573427.656000,-0.65,-0.401,0.4,93.87,39.0,-52.71
573427.703000,-0.668,-0.396,0.438,27.19,28.69,-15.11
573427.750000,-0.749,-0.694,0.475,-23.47,24.99,-4.09
573427.796000,-0.803,-0.76,0.555,4.09,28.69,-10.28
573427.843000,-0.767,-0.575,0.537,13.0,26.09,-48.25
573427.890000,-0.718,-0.399,0.547,22.92,19.96,-54.69
573427.937000,-0.639,-0.337,0.49,24.54,16.66,-41.66
573427.984000,-0.639,-0.407,0.511,21.58,19.78,-27.04
573428.031000,-0.658,-0.485,0.523,29.63,13.52,-14.04
573428.078000,-0.668,-0.57,0.503,23.59,11.96,-6.81
573428.125000,-0.691,-0.694,0.508,22.55,11.23,-10.9
573428.171000,-0.682,-0.663,0.501,23.29,9.74,-21.67
573428.218000,-0.687,-0.639,0.513,21.61,12.02,-26.15
573428.265000,-0.692,-0.629,0.494,14.95,18.92,-29.57
573428.312000,-0.655,-0.611,0.49,8.67,29.02,-40.56
573428.359000,-0.635,-0.576,0.442,-4.06,42.36,-47.98
573428.406000,-0.663,-0.554,0.439,6.26,59.88,-45.47
573428.453000,-0.67,-0.52,0.412,27.8,51.76,-29.79
573428.500000,-0.672,-0.506,0.392,40.8,56.67,-31.1
573428.546000,-0.703,-0.5,0.468,30.03,56.67,-16.21
573428.593000,-0.696,-0.527,0.431,28.2,48.01,-10.71
573428.640000,-0.685,-0.544,0.441,8.36,60.12,-11.72
573428.687000,-0.674,-0.55,0.362,25.48,44.19,0.37
573428.734000,-0.68,-0.633,0.303,6.44,78.95,-6.62
573428.781000,-0.794,-0.661,0.452,21.03,68.91,16.51
573428.828000,-0.713,-0.734,0.242,40.41,39.46,-1.68
573428.875000,-0.751,-0.628,0.38,43.24,24.99,-18.77
573428.921000,-0.717,-0.674,0.388,42.15,10.28,-20.48
573428.968000,-0.678,-0.706,0.469,49.1,-24.02,-39.25
573429.015000,-0.567,-0.482,0.555,116.37,-131.57,-20.2
573429.062000,-0.591,-0.461,0.451,79.71,-129.83,71.23
573429.109000,-0.905,-0.361,1.103,26.86,-219.58,103.98
573429.156000,-0.827,-0.283,0.699,-71.69,-345.04,127.69
573429.203000,-0.344,-0.4,0.632,-104.5,-176.52,71.6
573429.250000,-0.217,-0.384,0.639,-128.48,-41.26,78.52
573429.296000,-0.336,-0.639,0.479,-118.17,53.93,67.29
573429.343000,-0.455,-0.885,0.304,-150.79,188.73,14.37
573429.390000,-0.64,-0.949,0.353,-54.32,243.93,-28.38
573429.437000,-0.552,-0.864,-0.214,-29.66,284.22,-73.18
573429.484000,-0.784,-0.97,0.335,-12.67,272.9,-123.91
573429.531000,-0.584,-0.741,-0.14,40.93,164.71,-63.69
573429.578000,-0.611,-0.987,0.203,23.53,130.83,-73.73
573429.625000,-0.411,-1.124,0.025,-13.34,124.24,-97.9
573429.671000,-0.351,-0.976,-0.172,20.97,63.91,-99.89
573429.718000,-0.271,-1.034,-0.03,14.74,69.86,-101.9
573429.765000,-0.183,-1.054,-0.051,21.27,67.14,-98.7
573429.812000,-0.091,-1.05,-0.024,25.36,53.25,-116.09
573429.859000,-0.028,-1.007,0.007,27.47,46.24,-112.46
573429.906000,-0.033,-1.114,0.089,28.99,43.15,-117.53
573429.953000,0.09,-1.218,-0.037,31.65,38.21,-115.85
573430.000000,0.093,-1.258,0.01,32.59,35.98,-144.75
573430.046000,0.31,-1.173,0.056,51.48,32.17,-135.78
573430.093000,0.355,-0.874,0.147,51.36,30.55,-150.12
573430.140000,0.512,-0.819,0.112,56.12,35.95,-118.87
573430.187000,0.527,-0.537,0.185,43.82,44.04,-117.47
573430.234000,0.559,-0.558,0.25,32.81,49.32,-93.54
573430.281000,0.565,-0.532,0.273,20.54,42.39,-76.66
573430.328000,0.562,-0.483,0.33,13.0,27.86,-69.28
573430.375000,0.568,-0.549,0.379,12.39,9.8,-39.89
573430.421000,0.54,-0.451,0.402,16.08,-12.82,-30.12
573430.468000,0.522,-0.301,0.647,-10.9,-81.12,2.01
573430.515000,0.479,-0.267,0.697,-53.5,-344.0,37.54
573430.562000,0.169,-0.192,0.026,-27.77,-501.79,132.24
573430.609000,-0.112,-0.45,-0.793,-83.96,-560.99,221.56
573430.656000,-0.532,-0.634,-0.956,-204.72,-532.91,206.88
573430.703000,-0.065,-1.037,-1.439,-87.31,-349.89,121.92
573430.750000,-0.328,-0.741,-0.948,-37.57,-103.12,-13.67
573430.796000,-0.74,-0.375,-0.688,-3.81,-139.77,-5.71
573430.843000,-0.517,-0.55,-1.047,-26.03,-113.28,24.2
573430.890000,-0.58,-0.503,-0.846,-49.81,-29.18,16.57
573430.937000,-0.574,-0.487,-0.814,-18.13,-14.89,8.48
573430.984000,-0.56,-0.47,-0.844,5.68,33.57,2.2
573431.031000,-0.562,-0.413,-0.811,-7.11,71.47,16.11
573431.093000,-0.317,-0.628,-1.09,5.37,170.17,-5.04
573431.140000,-0.343,-0.551,-1.101,136.63,314.25,-25.09
573431.187000,-0.223,-0.573,-1.391,251.41,455.12,-30.46
573431.234000,-0.21,-0.622,-0.808,211.8,464.52,-53.59
573431.296000,0.143,-0.666,-0.047,148.41,292.18,-90.73
573431.343000,0.537,-0.788,-0.1,187.57,173.59,-89.39
573431.390000,0.508,-0.562,0.175,66.13,158.82,-121.92
573431.437000,0.591,-0.464,0.187,36.19,75.35,-14.8
573431.484000,0.639,-0.755,0.3,-7.48,66.81,-53.56
573431.531000,0.557,-0.576,0.329,-7.93,36.53,-32.17
573431.578000,0.611,-0.762,0.316,-14.1,22.43,-20.54
573431.625000,0.608,-0.635,0.322,-4.82,2.99,-23.71
573431.671000,0.658,-0.699,0.321,-6.93,-13.21,-24.72
573431.718000,0.667,-0.53,0.376,-9.92,-38.61,-11.05
573431.765000,0.554,-0.432,0.648,-63.94,-197.82,25.18
573431.812000,0.269,-0.264,0.381,-94.94,-415.69,99.58
573431.859000,-0.554,-0.482,-0.716,-66.59,-623.22,328.68
573431.906000,-0.46,-0.774,-1.33,-282.48,-518.66,227.79
573431.953000,-0.117,-0.983,-1.255,-252.36,-314.74,91.62
573432.000000,-0.241,-0.694,-1.136,-26.4,8.64,-18.62
573432.046000,-0.498,-0.342,-0.901,19.26,28.47,-23.22
573432.093000,-0.335,-0.527,-0.859,0.52,13.18,25.97
573432.140000,-0.297,-0.591,-0.806,-7.45,29.42,23.74
573432.187000,-0.261,-0.634,-0.889,10.01,40.5,2.78
573432.234000,-0.192,-0.847,-0.962,26.28,112.83,-42.63
573432.281000,-0.356,-0.9,-0.942,103.67,175.48,-95.74
573432.328000,-0.338,-1.181,-1.024,180.58,159.03,-110.97
573432.375000,-0.103,-1.763,-0.838,194.4,107.58,-158.18
573432.421000,-0.245,-1.697,-0.602,182.35,57.07,-237.22
573432.468000,0.075,-1.251,-0.7,173.22,-12.54,-334.7
573432.515000,0.17,-0.561,-0.512,116.43,3.75,-344.52
573432.562000,0.203,0.091,-0.465,115.48,-13.58,-320.32
573432.609000,0.407,0.428,-0.383,49.35,29.42,-275.64
573432.656000,0.381,0.601,-0.01,8.45,-0.79,-189.28
573432.703000,0.604,0.513,-0.156,13.0,-33.45,-133.79
573432.750000,0.699,0.579,-0.054,-46.42,-12.85,-100.92
573432.796000,0.793,0.597,-0.104,-47.61,-42.82,-29.6
573432.843000,0.831,0.209,-0.253,-25.94,-46.63,-29.73
573432.890000,0.884,0.179,-0.262,10.86,-16.97,-15.29
573432.953000,0.883,0.554,-0.401,23.04,-26.76,-15.87
573433.000000,0.768,0.215,-0.466,-13.92,16.97,-5.13
573433.046000,0.876,0.321,-0.322,2.53,-22.77,23.53
573433.093000,0.895,0.343,-0.376,-39.8,2.32,-12.3
573433.140000,0.842,0.195,-0.306,9.55,5.92,-2.14
573433.187000,0.8,0.286,-0.26,8.58,37.35,-14.56
573433.234000,0.662,0.413,-0.37,60.37,83.13,21.36
573433.281000,0.636,0.516,-0.21,56.49,107.15,41.44
573433.328000,0.46,0.913,0.287,-21.67,13.46,134.16
573433.375000,0.566,0.158,0.005,-9.34,-0.98,215.55
573433.421000,0.732,-0.598,-0.217,-36.74,-39.34,197.79
573433.468000,0.784,-0.513,-0.222,26.03,-19.23,175.42
573433.515000,0.81,-0.555,-0.374,6.32,2.29,179.08
573433.562000,0.665,-0.529,-0.167,-18.71,19.2,156.44
573433.609000,0.646,-0.759,-0.242,13.86,12.6,200.29
573433.656000,0.481,-0.833,-0.253,-9.92,65.07,165.9
573433.703000,0.289,-0.933,-0.023,17.55,76.2,206.98
573433.750000,0.23,-1.134,0.043,20.94,77.49,210.43
573433.796000,0.221,-1.338,0.177,-42.57,22.31,126.96
573433.843000,0.246,-1.414,0.033,-17.55,-29.21,96.93
573433.890000,0.319,-1.41,-0.185,13.03,-39.92,68.7
573433.937000,0.244,-1.293,-0.175,-20.05,-5.71,9.52
573433.984000,0.099,-1.149,-0.109,1.34,12.02,-4.91
573434.031000,0.046,-1.061,-0.055,8.0,14.98,-1.92
573434.078000,-0.008,-0.975,-0.016,9.25,13.64,-0.67
573434.125000,-0.006,-0.915,-0.001,-2.75,4.88,4.09
573434.171000,0.044,-0.85,0.029,-6.26,-8.27,8.18
573434.218000,0.123,-0.876,-0.062,-15.38,-26.34,2.29
573434.265000,0.145,-0.943,-0.155,-27.13,-22.06,-6.2
573434.312000,0.124,-1.129,-0.227,-21.52,-18.74,11.14
573434.359000,0.193,-1.102,-0.261,-1.98,-21.24,1.77
573434.406000,0.271,-0.947,-0.302,-8.24,-15.44,-13.28
573434.453000,0.271,-0.921,-0.328,-0.79,6.87,-5.77
573434.500000,0.211,-0.967,-0.244,7.66,28.81,2.96
573434.546000,0.152,-1.064,-0.223,11.41,32.38,8.73
573434.593000,0.106,-1.087,-0.262,11.81,49.65,-3.2
573434.640000,0.109,-0.946,-0.209,30.49,82.28,-2.14
573434.687000,0.073,-0.902,-0.138,45.96,81.55,4.58
573434.734000,0.063,-0.882,-0.104,51.97,101.44,8.06
573434.781000,0.02,-0.873,0.082,39.4,74.28,15.81
573434.828000,0.011,-0.868,0.085,43.28,57.86,29.02
573434.890000,-0.032,-0.859,0.227,16.97,25.76,39.86
573434.937000,-0.115,-0.895,0.252,-4.43,-21.0,48.71
573434.984000,-0.162,-0.986,0.227,-20.33,-37.66,34.58
573435.031000,-0.137,-1.032,0.159,-20.54,-46.97,20.08
573435.078000,-0.03,-1.049,0.022,-12.91,-36.59,9.19
573435.125000,0.002,-1.015,-0.001,-4.97,-23.04,7.39
573435.171000,0.015,-0.994,0.028,1.28,-11.6,22.49
573435.218000,0.008,-1.033,0.008,-2.56,-6.16,20.75
573435.265000,0.027,-1.029,-0.038,-20.29,12.79,9.95
573435.312000,-0.001,-1.078,-0.063,-49.65,42.6,-11.08
573435.359000,0.004,-1.011,-0.002,-15.08,45.9,-14.1
573435.406000,-0.035,-1.027,-0.042,9.22,54.72,12.7
573435.453000,-0.066,-1.029,0.02,62.11,53.38,43.67
573435.500000,-0.084,-1.007,0.042,63.48,59.11,53.22
573435.546000,-0.131,-1.022,0.052,80.14,58.78,48.25
573435.593000,-0.225,-0.993,0.213,77.88,59.72,43.43
573435.640000,-0.275,-0.952,0.186,81.3,65.55,44.43
573435.703000,-0.341,-0.891,0.203,72.33,66.56,52.37
573435.750000,-0.47,-0.878,0.375,43.15,61.83,31.4
573435.796000,-0.435,-0.859,0.272,32.47,55.02,14.16
573435.843000,-0.464,-0.781,0.311,29.42,48.07,11.9
573435.890000,-0.455,-0.849,0.322,21.06,40.44,11.2
573435.937000,-0.462,-0.882,0.318,8.06,32.81,-9.49
573435.984000,-0.438,-0.897,0.294,0.31,29.51,-25.79
573436.031000,-0.417,-0.863,0.318,-3.51,26.76,-20.39
573436.078000,-0.386,-0.953,0.303,-11.66,28.84,-41.81
573436.125000,-0.395,-0.944,0.283,-16.75,28.11,-67.87
573436.171000,-0.388,-0.926,0.329,-23.59,16.27,-92.14
573436.218000,-0.378,-0.924,0.33,-25.88,-11.02,-84.17
573436.265000,-0.229,-1.022,0.256,-48.4,-32.93,-88.87
573436.312000,-0.285,-0.87,0.463,-31.77,-83.22,-62.53
573436.359000,-0.205,-0.943,0.228,28.23,-240.36,43.0
573436.406000,0.059,-1.121,0.023,76.85,-77.18,38.3
573436.453000,-0.117,-0.948,0.345,119.21,-84.69,63.78
573436.500000,-0.19,-0.93,0.498,166.05,-8.7,102.94
573436.562000,-0.344,-0.721,0.624,200.66,-45.59,142.37
573436.609000,-0.422,-0.694,0.767,147.25,-37.35,114.9
573436.656000,-0.417,-0.545,0.742,63.14,-54.32,49.1
573436.703000,-0.331,-0.494,0.699,12.6,-43.98,14.71
573436.750000,-0.248,-0.527,0.628,-31.25,-16.51,-19.81
573436.796000,-0.189,-0.612,0.554,-76.97,37.08,-52.06
573436.843000,-0.206,-0.727,0.543,-110.54,86.52,-101.6
573436.890000,-0.281,-0.801,0.593,-142.12,106.11,-149.69
573436.937000,-0.314,-0.838,0.573,-126.26,96.41,-144.32
573436.984000,-0.184,-0.958,0.477,-93.2,73.95,-124.91
573437.031000,-0.05,-1.096,0.234,-1.07,24.81,-152.13
573437.078000,-0.033,-1.151,0.497,-91.68,55.45,-240.67
573437.125000,0.149,-0.774,0.372,-101.44,14.22,-155.1
573437.171000,0.32,-0.916,0.316,-143.35,-24.51,-132.39
573437.218000,0.29,-0.685,0.393,-190.34,-143.59,-115.51
573437.265000,0.031,-0.385,0.086,-207.65,-344.71,10.93
573437.312000,-0.315,-0.504,-0.666,-209.72,-457.44,135.75
573437.359000,-0.415,-0.666,-0.922,-252.69,-419.14,93.02
573437.406000,-0.235,-0.835,-1.169,-163.95,-260.54,68.67
573437.453000,-0.245,-0.652,-1.122,-10.04,-57.99,4.03
573437.500000,-0.43,-0.408,-1.026,24.93,6.84,1.83
573437.546000,-0.393,-0.494,-0.856,10.28,22.98,24.38
573437.593000,-0.284,-0.695,-0.976,7.63,74.43,5.62
573437.640000,-0.064,-0.814,-1.258,110.66,217.14,-37.11
573437.687000,-0.243,-0.573,-0.997,188.18,338.48,-32.78
573437.734000,-0.003,-0.664,-1.014,176.58,342.36,-24.05
573437.781000,0.115,-0.756,-0.416,137.79,268.93,-11.75
573437.828000,0.138,-0.802,0.039,52.71,189.76,-30.73
573437.875000,0.292,-0.757,-0.119,25.24,69.22,-35.37
573437.921000,0.378,-0.775,-0.181,17.61,26.4,-30.0
573437.968000,0.415,-0.748,-0.101,-6.38,7.78,-19.75
573438.015000,0.382,-0.729,-0.091,-46.63,-53.07,-6.5
573438.062000,0.257,-0.72,0.197,-76.45,-220.31,1.46
573438.109000,-0.358,-0.372,-0.167,-70.25,-471.69,38.3
573438.156000,-0.751,-0.418,-1.007,-218.73,-564.47,123.87
573438.203000,-0.585,-0.707,-1.443,-250.77,-447.37,108.89
573438.250000,-0.161,-0.832,-1.398,-39.12,-47.21,8.39
573438.296000,-0.572,-0.377,-1.205,65.0,75.62,-33.08
573438.343000,-0.212,-0.576,-1.2,88.6,224.8,-7.9
573438.390000,-0.223,-0.715,-1.13,158.06,403.82,-14.92
573438.437000,-0.357,-0.522,-1.155,184.51,478.04,-20.66
573438.484000,0.015,-0.678,-0.537,183.72,356.85,-0.4
573438.531000,0.136,-0.819,-0.039,93.75,225.78,-37.05
573438.578000,0.231,-0.734,0.039,46.48,134.83,-44.04
573438.625000,0.446,-0.763,-0.198,40.77,77.03,-44.77
573438.671000,0.545,-0.783,-0.177,44.77,60.21,-37.57
573438.718000,0.618,-0.83,-0.102,42.79,72.6,-20.97
573438.765000,0.602,-0.866,0.028,48.34,59.63,-21.0
573438.812000,0.624,-0.815,0.082,37.17,56.89,-29.24
573438.875000,0.637,-0.811,0.166,35.49,45.23,-22.25
573438.921000,0.684,-0.818,0.133,25.67,50.72,-25.82
573438.968000,0.587,-0.698,0.266,20.17,46.75,-17.12
573439.015000,0.605,-0.842,0.301,21.21,47.85,-19.87
573439.062000,0.623,-0.794,0.321,24.6,43.46,-26.86
573439.109000,0.654,-0.807,0.321,30.3,43.34,-38.36
573439.156000,0.644,-0.725,0.379,28.99,34.33,-58.05
573439.203000,0.697,-0.82,0.318,37.54,32.14,-52.43
573439.250000,0.614,-0.638,0.36,48.71,32.84,-88.29
573439.296000,0.584,-0.437,0.416,52.4,28.41,-66.99
573439.343000,0.549,-0.188,0.448,46.21,10.41,-60.3
573439.390000,0.551,-0.178,0.479,26.67,-8.61,-39.06
573439.437000,0.595,-0.141,0.518,3.94,-24.51,-21.45
573439.484000,0.667,-0.283,0.492,-8.51,-40.65,4.39
573439.531000,0.788,-0.479,0.414,-24.69,-64.03,-9.46
573439.578000,0.96,-0.495,0.361,-1.77,-38.06,-2.04
573439.625000,0.886,-0.322,0.389,-8.33,-44.22,-11.78
573439.671000,0.86,-0.282,0.461,3.94,-44.04,13.0
573439.718000,0.765,-0.16,0.627,-16.51,-137.18,36.74
573439.765000,0.777,-0.251,0.291,-21.39,-223.27,72.39
573439.812000,0.589,-0.305,0.37,7.69,-325.97,111.76
573439.859000,0.098,-0.44,-0.2,38.24,-451.7,256.51
573439.906000,-0.25,-0.708,-0.849,-77.79,-484.97,258.86
573439.953000,-0.084,-0.854,-1.027,-216.13,-329.69,164.74
573440.000000,0.063,-0.936,-1.158,-136.78,-152.23,95.03
573440.046000,-0.159,-0.736,-1.211,-39.06,-42.33,23.53
573440.093000,-0.313,-0.541,-0.957,39.16,0.52,12.7
573440.140000,0.045,-0.95,-1.036,49.78,51.91,-16.08
573440.187000,0.08,-0.919,-0.983,163.91,193.43,-53.71
573440.234000,0.008,-0.749,-0.994,334.39,394.63,-45.17
573440.281000,-0.498,-0.635,-0.935,-62.38,656.42,-74.07
573440.328000,0.093,-0.746,0.235,113.1,285.93,-34.21
573440.375000,0.082,-0.91,0.552,10.41,106.81,-65.25
573440.421000,0.299,-0.725,0.146,6.62,9.22,-41.17
573440.468000,0.514,-0.702,-0.114,30.21,-65.1,-7.54
573440.515000,0.614,-0.786,-0.075,84.57,-51.42,34.24
573440.562000,0.541,-0.725,0.041,104.04,-65.28,99.95
573440.609000,0.292,-0.885,0.15,232.37,-149.45,253.98
573440.656000,-0.071,-0.972,0.628,229.1,-79.47,331.68
573440.703000,-0.226,-0.788,0.332,314.46,-96.41,389.29
573440.750000,-0.562,-0.918,0.975,136.6,-47.0,236.52
573440.796000,-0.485,-0.762,0.427,101.47,-75.56,172.19
573440.843000,-0.539,-0.685,0.958,58.11,-65.49,129.22
573440.890000,-0.342,-0.612,0.416,76.39,-66.47,126.8
573440.937000,-0.5,-0.526,0.91,30.27,-47.91,94.55
573440.984000,-0.365,-0.612,0.69,10.86,-26.67,82.4
573441.031000,-0.411,-0.474,0.72,21.52,-39.52,69.46
573441.078000,-0.373,-0.421,0.692,12.15,-16.48,59.79
573441.125000,-0.378,-0.424,0.729,-20.45,-8.58,39.52
573441.171000,-0.394,-0.409,0.728,-17.64,12.02,27.92
573441.218000,-0.478,-0.458,0.839,-7.54,21.82,26.8
573441.265000,-0.57,-0.52,0.788,-22.22,29.21,4.55
573441.312000,-0.559,-0.678,0.702,-44.37,43.09,-24.23
573441.359000,-0.429,-0.851,0.55,-77.03,49.47,-96.44
573441.406000,-0.389,-0.895,0.473,-75.01,67.38,-130.68
573441.453000,-0.342,-0.793,0.447,-52.28,97.9,-143.19
573441.500000,-0.443,-0.442,0.474,-9.95,116.21,-114.41
573441.546000,-0.701,-0.341,0.661,62.69,141.36,15.87
573441.593000,-0.805,-0.418,0.788,109.2,128.06,78.01
573441.640000,-0.99,-0.436,0.831,-12.73,80.69,-39.7
573441.687000,-0.905,-0.417,0.79,-45.99,21.09,-43.34
573441.734000,-0.724,-0.491,0.617,-40.01,-7.97,-22.37
573441.781000,-0.693,-0.591,0.553,-55.97,2.23,-17.61
573441.828000,-0.592,-0.68,0.478,-41.93,-10.68,-10.77
573441.875000,-0.524,-0.689,0.429,-50.08,-13.28,-34.52
573441.921000,-0.499,-0.694,0.407,-66.13,6.5,-47.43
573441.968000,-0.488,-0.786,0.442,-52.92,2.38,-22.98
573442.015000,-0.48,-0.892,0.391,-51.88,12.67,-27.34
573442.062000,-0.46,-0.994,0.398,-56.15,10.32,-31.95
573442.109000,-0.428,-1.031,0.322,-40.83,13.34,-29.33
573442.156000,-0.434,-1.109,0.254,-36.44,39.8,-30.58
573442.203000,-0.458,-1.204,0.221,-17.58,31.68,-62.44
573442.250000,-0.46,-1.201,0.193,-20.48,23.22,-97.99
573442.296000,-0.421,-1.185,0.186,-25.67,15.78,-137.3
573442.343000,-0.344,-1.355,0.173,-55.97,15.35,-199.62
573442.390000,-0.297,-1.357,0.189,-46.97,-9.43,-235.3
573442.437000,-0.041,-1.096,-0.089,-6.93,-35.86,-195.59
573442.484000,0.13,-1.078,-0.117,-7.97,-49.93,-209.6
573442.531000,0.364,-0.623,-0.483,-61.89,-47.52,-289.83
573442.578000,0.577,-0.321,-0.218,-67.96,14.47,-198.28
573442.625000,0.709,-0.25,-0.282,-70.47,46.69,-147.1
573442.671000,0.75,-0.144,-0.365,-25.24,70.04,-99.03
573442.718000,0.569,-0.063,-0.139,-37.84,88.44,-73.61
573442.765000,0.745,0.025,-0.041,-22.98,85.63,-55.91
573442.812000,0.82,0.036,0.268,-27.92,82.28,-1.13
573442.859000,1.002,-0.342,0.166,-27.71,73.43,4.33
573442.906000,1.011,-0.648,0.173,-17.24,76.42,25.36
573442.953000,0.944,-0.664,0.209,8.06,80.72,-0.67
573443.000000,0.748,-0.264,0.344,15.08,57.74,-10.77
573443.046000,0.696,-0.452,0.425,20.51,5.77,19.26
573443.093000,0.785,-0.315,0.289,15.56,-30.52,-15.14
573443.140000,0.957,-0.238,0.241,2.62,-32.32,-0.79
573443.187000,0.991,-0.337,0.191,-11.6,-25.73,0.37
573443.234000,0.99,-0.402,0.211,-7.81,-11.29,5.43
573443.281000,0.948,-0.458,0.216,-2.5,-3.6,2.08
573443.328000,0.881,-0.374,0.251,4.21,5.37,-3.33
573443.375000,0.885,-0.396,0.207,5.4,1.74,0.34
573443.421000,0.895,-0.351,0.141,11.35,4.39,-4.49
573443.484000,0.913,-0.261,0.117,3.75,0.03,-2.96
573443.531000,0.893,-0.22,0.107,-9.8,-1.68,-1.4
573443.578000,0.913,-0.316,0.162,-13.46,-0.82,-3.66
573443.625000,0.916,-0.369,0.16,-14.34,0.24,-0.85
573443.671000,0.902,-0.422,0.201,-10.1,4.06,1.68
573443.718000,0.87,-0.418,0.226,-4.27,2.41,6.81
573443.765000,0.872,-0.414,0.194,3.72,-0.21,9.95
573443.812000,0.842,-0.366,0.234,5.8,-3.39,12.76
573443.859000,0.741,-0.461,0.243,5.34,-18.49,24.08
573443.906000,0.94,-0.431,0.039,22.28,-33.14,6.68
573443.953000,0.987,-0.198,0.127,16.42,-19.2,12.02
573444.000000,0.973,-0.394,0.175,4.76,-7.84,21.67
573444.046000,0.898,-0.526,0.274,5.46,-11.26,13.92
573444.093000,0.983,-0.583,0.15,16.75,-23.56,-8.03
573444.140000,0.985,-0.276,0.119,22.1,-3.78,-11.02
573444.187000,0.939,-0.331,0.133,-0.37,-1.86,-6.68
573444.234000,0.918,-0.377,0.074,4.79,10.99,-12.05
573444.281000,0.826,-0.335,0.185,2.47,8.15,-1.62
573444.343000,0.848,-0.429,0.131,6.01,-9.74,0.37
573444.390000,0.876,-0.392,0.114,7.66,-4.36,-8.45
573444.437000,0.886,-0.341,0.162,8.18,4.06,-3.75
573444.484000,0.867,-0.342,0.197,3.81,-3.51,7.78
573444.531000,0.903,-0.399,0.118,-2.08,-7.69,-6.71
573444.578000,0.925,-0.356,0.121,1.01,-2.53,-4.03
573444.625000,0.951,-0.392,0.056,-0.79,0.79,1.71
573444.671000,0.915,-0.349,0.132,-2.32,10.1,-2.17
573444.718000,0.872,-0.374,0.165,-3.36,6.44,-2.62
573444.765000,0.896,-0.365,0.174,-4.73,3.14,-1.77
573444.812000,0.907,-0.418,0.151,-1.37,0.15,0.15
573444.859000,0.904,-0.382,0.137,8.06,7.42,-2.17
573444.906000,0.883,-0.344,0.182,7.6,2.5,3.57
573444.953000,0.917,-0.383,0.147,4.79,2.72,3.11
573445.000000,0.915,-0.351,0.164,-1.46,3.14,-0.7
573445.046000,0.907,-0.385,0.166,-1.83,5.01,1.43
573445.093000,0.897,-0.373,0.148,-2.44,3.75,-2.47
573445.156000,0.876,-0.377,0.188,-1.98,2.75,3.42
573445.203000,0.896,-0.386,0.172,-3.33,1.37,0.34
573445.250000,0.892,-0.366,0.197,-0.61,1.25,3.94
573445.296000,0.896,-0.396,0.177,0.34,0.67,5.31
573445.343000,0.877,-0.384,0.203,-1.13,3.42,0.49
573445.390000,0.869,-0.373,0.204,1.22,-2.53,4.7
573445.437000,0.911,-0.386,0.147,-1.4,-5.62,5.31
573445.484000,0.903,-0.405,0.178,-2.75,0.67,0.12
573445.531000,0.901,-0.412,0.149,0.43,-0.95,4.91
573445.578000,0.883,-0.394,0.169,0.67,2.87,0.49
573445.625000,0.88,-0.394,0.187,-0.55,-3.94,0.12
573445.671000,0.902,-0.399,0.129,0.61,-3.05,0.92
573445.734000,0.895,-0.372,0.167,2.08,-0.82,2.96
573445.781000,0.885,-0.369,0.169,-3.02,0.7,0.61
573445.828000,0.885,-0.415,0.161,8.36,-6.35,10.28
573445.875000,0.885,-0.392,0.161,7.42,1.19,-3.02
573445.921000,0.87,-0.399,0.164,0.34,-5.16,4.91
573445.968000,0.867,-0.406,0.203,-3.45,-8.33,3.6
573446.015000,0.902,-0.426,0.132,-2.66,-11.75,4.0
573446.062000,0.887,-0.41,0.165,0.15,-2.41,0.21
573446.109000,0.863,-0.413,0.164,13.95,-7.42,8.21
573446.156000,0.884,-0.429,0.137,5.98,-6.23,-4.46
573446.203000,0.901,-0.384,0.12,2.62,-8.79,-0.52
573446.250000,0.904,-0.413,0.116,0.92,-4.61,7.08
573446.296000,0.904,-0.426,0.122,0.95,-4.15,3.39
573446.343000,0.934,-0.444,0.064,1.71,-4.79,0.27
573446.390000,0.952,-0.387,0.093,8.51,-1.22,1.04
573446.437000,0.975,-0.367,0.082,18.92,-0.7,9.4
573446.484000,0.996,-0.456,-0.005,-2.72,27.22,4.15
573446.531000,0.873,-0.419,0.152,-6.2,20.36,-0.73
573446.578000,0.864,-0.409,0.16,-14.56,22.34,-20.08
573446.625000,0.875,-0.344,0.179,-13.58,17.82,-10.07
573446.671000,0.87,-0.423,0.194,-8.3,12.82,-5.04
573446.718000,0.871,-0.438,0.199,-0.46,18.01,-10.32
573446.765000,0.832,-0.418,0.258,-3.6,8.82,-7.78
573446.812000,0.81,-0.406,0.281,-5.74,5.34,-1.59
573446.859000,0.781,-0.405,0.28,-10.28,-3.45,1.28
573446.906000,0.841,-0.432,0.206,0.06,-13.28,8.0
573446.953000,0.866,-0.425,0.178,20.23,-19.78,13.92
573447.000000,0.881,-0.408,0.153,24.93,-16.48,6.23
573447.046000,0.936,-0.355,0.126,14.1,-16.94,7.63
573447.093000,0.897,-0.386,0.191,-7.75,-12.97,0.37
573447.140000,0.918,-0.47,0.133,-8.36,-14.8,6.56
573447.187000,0.878,-0.439,0.131,-5.31,-11.81,-5.55
573447.234000,0.839,-0.405,0.105,1.77,-5.89,-2.99
573447.281000,0.747,-0.38,0.212,0.55,0.7,-4.46
573447.328000,0.774,-0.335,0.261,-5.34,-20.45,3.3
573447.375000,0.952,-0.49,0.099,-8.42,-34.73,15.5
573447.421000,1.044,-0.559,-0.016,-4.85,-29.15,10.16
573447.468000,0.978,-0.361,-0.045,-3.54,8.06,-20.6
573447.515000,0.855,-0.328,-0.028,-7.02,17.98,-15.9
573447.562000,0.808,-0.317,0.23,-25.48,25.82,-10.28
573447.625000,0.875,-0.758,0.016,-22.64,-29.82,56.79
573447.671000,0.914,-0.398,0.021,-14.13,4.27,-66.96
573447.718000,0.868,-0.19,0.003,-9.28,19.99,-33.36
573447.765000,0.899,-0.407,-0.013,-30.88,16.94,10.25
573447.812000,0.929,-0.487,0.12,-29.97,27.13,-5.95
573447.859000,0.936,-0.289,0.111,-18.25,19.14,-34.88
573447.906000,0.959,-0.274,0.137,-22.46,20.05,-10.01
573447.953000,0.928,-0.4,0.169,-18.77,7.93,-1.92
573448.000000,0.919,-0.395,0.143,-2.9,21.97,-11.08
573448.046000,0.836,-0.263,0.225,-8.0,7.6,-19.96
573448.093000,0.892,-0.405,0.073,0.7,-1.8,-2.41
573448.140000,0.893,-0.394,0.108,9.0,0.82,-4.46
573448.187000,0.852,-0.176,0.195,2.35,0.06,-14.89
573448.234000,0.837,-0.121,0.198,1.04,2.87,-6.68
573448.281000,0.771,-0.102,0.257,-24.87,-12.51,-10.32
573448.343000,1.062,-0.729,-0.196,-20.26,-23.8,18.28
573448.390000,1.013,-0.556,0.008,8.24,4.94,-5.16
573448.437000,0.994,-0.299,0.114,12.48,6.9,0.09
573448.500000,1.039,-0.347,-0.002,16.3,14.65,-0.55
573448.546000,0.963,-0.353,0.111,17.3,18.71,-1.01
573448.593000,0.823,-0.35,0.13,26.49,19.17,-4.46
573448.640000,0.766,-0.256,0.167,30.76,7.66,-1.8
573448.687000,0.849,-0.164,0.12,23.96,-5.46,10.68
573448.734000,0.93,-0.168,0.116,12.79,2.14,15.29
573448.781000,0.905,-0.388,0.178,12.97,4.36,22.03
573448.843000,0.852,-0.493,0.242,25.85,-15.99,20.17
573448.890000,1.005,-0.097,0.147,25.45,-21.88,-10.74
573448.937000,0.925,-0.253,0.262,3.3,-14.16,18.01
573448.984000,0.853,-0.369,0.27,-3.27,-19.87,6.87
573449.031000,0.879,-0.485,0.211,8.24,-27.13,13.09
573449.078000,0.926,-0.293,0.139,18.46,-25.82,22.25
573449.125000,0.983,-0.266,0.085,6.29,-16.27,11.29
573449.171000,0.974,-0.354,0.104,2.29,-8.58,14.86
573449.218000,1.003,-0.422,0.033,-1.46,-10.19,1.37
573449.265000,1.01,-0.417,0.011,2.96,-0.37,-2.84
573449.312000,0.923,-0.376,0.066,-3.57,1.13,-4.91
573449.359000,0.84,-0.406,0.051,-2.17,0.34,3.75
573449.406000,0.831,-0.372,0.05,-3.97,-5.92,4.82
573449.453000,0.871,-0.436,0.054,-0.4,-9.83,8.39
573449.500000,0.883,-0.344,0.119,-5.13,-15.44,6.59
573449.546000,0.908,-0.419,0.049,-23.35,-34.64,10.41
573449.593000,0.916,-0.493,-0.023,-15.02,-27.65,8.21
573449.640000,0.957,-0.464,-0.057,2.26,-7.14,-3.6
573449.687000,0.93,-0.388,-0.006,2.26,3.27,3.11
573449.734000,0.916,-0.424,-0.02,1.8,7.57,-2.78
573449.781000,0.874,-0.43,0.016,2.2,3.57,2.29
573449.828000,0.886,-0.414,-0.036,-2.84,3.6,5.68
573449.875000,0.869,-0.409,0.003,-1.86,4.06,0.24
573449.921000,0.89,-0.445,-0.035,3.02,-1.89,0.0
573449.968000,0.917,-0.407,-0.028,5.4,0.15,-3.27
573450.015000,0.91,-0.412,-0.021,1.71,2.78,0.79
573450.062000,0.888,-0.404,0.0,1.59,5.16,-0.7
573450.109000,0.864,-0.439,0.012,3.17,2.87,2.29
573450.156000,0.87,-0.412,0.008,0.15,-0.52,0.27
573450.203000,0.892,-0.408,0.033,0.67,3.11,0.24
573450.250000,0.906,-0.417,0.06,-2.32,-0.18,0.61
573450.296000,0.921,-0.43,0.139,3.02,0.18,2.53
573450.343000,0.967,-0.514,0.293,7.78,-0.55,-8.73
573450.390000,1.125,-0.571,0.415,30.92,24.81,-6.53
573450.437000,1.046,-0.529,0.474,44.34,48.16,-15.38
573450.484000,0.847,-0.293,0.607,48.95,41.66,-39.61
573450.531000,0.8,-0.251,0.438,44.37,20.72,-48.01
573450.578000,0.77,-0.052,0.393,13.89,-16.6,-43.21
573450.625000,0.837,-0.204,0.364,-25.48,-46.39,-8.09
573450.671000,0.985,-0.46,0.043,-24.99,-59.82,16.97
573450.718000,0.888,-0.355,-0.195,-23.38,-67.66,-9.34
573450.765000,0.84,-0.317,-0.498,-36.41,-71.57,-21.85
573450.812000,0.821,-0.156,-0.579,-30.76,-65.86,-11.41
573450.859000,0.785,-0.154,-0.555,-33.08,-62.75,-0.79
573450.906000,0.801,-0.362,-0.574,-20.17,-64.61,31.19
573450.953000,0.763,-0.238,-0.423,-10.35,-53.25,2.29
573451.000000,0.983,-0.329,-0.66,-3.2,-40.44,26.55
573451.046000,0.899,-0.223,-0.403,6.13,-2.04,-0.95
573451.093000,0.893,-0.159,-0.281,0.76,-7.72,-4.61
573451.140000,0.977,-0.228,-0.313,-6.71,-15.41,6.59
573451.187000,0.958,-0.4,-0.391,2.62,-14.8,4.7
573451.234000,0.905,-0.331,-0.356,5.4,-6.56,-0.79
573451.281000,0.874,-0.345,-0.287,1.86,-1.65,9.64
573451.328000,0.897,-0.304,-0.329,3.57,2.87,-7.11
573451.375000,0.836,-0.218,-0.281,-2.69,-3.94,-6.23
573451.421000,0.903,-0.255,-0.365,-5.31,-0.18,-1.68
573451.468000,0.862,-0.247,-0.313,-3.48,-4.67,5.58
573451.515000,0.863,-0.259,-0.303,-0.4,1.68,-3.05
573451.562000,0.902,-0.237,-0.365,0.89,2.75,1.28
573451.609000,0.871,-0.306,-0.318,-0.46,8.76,3.14
573451.656000,0.873,-0.279,-0.324,0.21,4.85,1.1
573451.703000,0.862,-0.302,-0.313,-0.85,5.98,1.56
573451.750000,0.872,-0.253,-0.318,5.25,5.49,-1.56
573451.796000,0.881,-0.383,-0.321,7.29,20.29,11.63
573451.843000,0.903,-0.398,-0.322,26.43,19.93,4.79
573451.890000,0.868,-0.195,-0.23,28.08,29.85,7.72
573451.937000,0.869,-0.268,-0.242,4.94,1.74,12.24
573451.984000,0.895,-0.311,-0.27,0.46,1.65,3.11
573452.031000,0.912,-0.372,-0.254,-1.62,5.07,4.67
573452.078000,0.879,-0.347,-0.267,2.99,0.73,-0.09
573452.125000,0.883,-0.265,-0.23,2.96,4.03,-0.12
573452.171000,0.887,-0.36,-0.228,-1.65,5.31,10.59
573452.218000,0.923,-0.37,-0.243,0.76,-1.19,-0.4
573452.265000,0.919,-0.376,-0.269,1.04,8.55,4.49
573452.312000,0.91,-0.336,-0.265,2.62,2.11,-2.53
573452.359000,0.87,-0.3,-0.183,3.51,7.78,5.8
573452.406000,0.865,-0.36,-0.238,-0.34,-0.43,4.3
573452.468000,0.869,-0.383,-0.212,2.75,2.84,10.28
573452.531000,0.865,-0.323,-0.236,2.75,0.37,1.62
573452.578000,0.88,-0.393,-0.223,1.74,3.39,11.05
573452.625000,0.893,-0.368,-0.231,1.07,-1.56,0.55
573452.671000,0.892,-0.364,-0.208,-1.22,0.67,5.55
573452.718000,0.874,-0.38,-0.208,-0.43,-4.18,7.05
573452.765000,0.902,-0.412,-0.234,1.28,-2.26,5.16
573452.812000,0.884,-0.397,-0.233,1.34,0.92,3.23
573452.875000,0.867,-0.376,-0.22,1.04,-0.4,3.17
573452.921000,0.867,-0.42,-0.224,1.53,1.5,2.75
573452.968000,0.883,-0.369,-0.252,-0.12,-3.57,-1.8
573453.015000,0.878,-0.408,-0.245,1.19,1.86,10.93
573453.062000,0.89,-0.423,-0.224,2.84,-1.5,0.79
573453.109000,0.882,-0.406,-0.235,3.54,3.36,2.14
573453.156000,0.872,-0.385,-0.23,1.65,-1.13,3.57
573453.203000,0.865,-0.415,-0.214,6.23,2.26,12.05
573453.250000,0.867,-0.406,-0.237,10.59,0.58,12.33
573453.296000,0.909,-0.456,-0.321,34.61,8.94,53.16
573453.343000,0.889,-0.548,-0.288,56.73,12.94,87.04
573453.390000,0.918,-0.859,-0.471,116.64,45.78,148.72
573453.453000,0.597,-0.827,-0.14,160.8,23.93,156.87
573453.500000,0.398,-0.946,-0.152,258.31,-22.52,266.55
573453.546000,0.299,-0.96,0.165,241.4,18.86,246.59
573453.593000,0.083,-0.714,0.505,218.51,-107.73,176.79
573453.640000,0.277,-0.639,0.272,166.23,-88.75,155.1
573453.687000,0.039,-0.589,0.828,184.85,-100.8,179.36
573453.734000,0.323,-0.639,0.304,207.59,-87.31,232.73
573453.781000,0.02,-0.533,0.906,171.3,-20.05,127.26
573453.828000,0.036,-0.563,0.75,124.82,-53.65,102.97
573453.875000,-0.073,-0.404,1.072,139.96,-23.1,42.12
573453.921000,-0.027,-0.266,0.958,106.72,-35.1,10.74
573453.968000,0.102,-0.25,0.889,102.76,16.97,-29.18
573454.015000,0.171,0.052,0.693,50.6,88.17,-68.45
573454.062000,0.043,0.005,0.731,-48.71,161.96,-166.39
573454.109000,-0.244,-0.558,0.828,-219.09,169.29,-291.27
573454.156000,-0.48,-0.852,0.979,-278.08,165.65,-363.44
573454.203000,-0.586,-1.204,1.12,-251.59,119.51,-440.72
573454.250000,-0.208,-0.748,0.94,-158.79,24.17,-365.4
573454.296000,0.129,-1.132,0.641,-159.37,20.08,-297.34
573454.343000,0.261,-0.675,0.773,-56.86,-38.0,-241.31
573454.390000,0.57,-0.816,0.449,-67.29,22.1,-202.92
573454.437000,0.553,-0.457,0.551,-54.41,9.52,-175.66
573454.484000,0.702,-0.406,0.357,-53.68,6.5,-119.82
573454.531000,0.704,-0.406,0.408,-29.05,21.33,-90.82
573454.578000,0.649,-0.35,0.486,-24.99,-6.74,-27.31
573454.625000,0.641,-0.458,0.403,-10.16,-34.61,-39.25
573454.671000,0.724,-0.43,0.336,4.52,-48.95,-27.07
573454.718000,1.002,-0.441,0.025,8.88,-45.17,-46.54
573454.765000,1.098,-0.127,0.09,3.88,3.23,-37.02
573454.812000,1.189,-0.275,0.037,-16.69,41.38,-19.71
573454.859000,1.057,-0.442,0.224,-15.08,61.8,1.4
573454.906000,0.869,-0.501,0.402,1.4,52.74,-23.38
573454.953000,0.753,-0.268,0.402,2.93,22.58,-13.76
573455.000000,0.715,-0.225,0.404,5.16,7.9,-6.71
573455.046000,0.727,-0.12,0.412,-3.11,-7.63,-2.62
573455.093000,0.817,-0.268,0.332,-17.73,-25.12,16.85
573455.140000,0.909,-0.376,0.375,-9.0,-17.58,13.67
573455.187000,0.898,-0.416,0.4,0.58,-6.44,4.67
573455.234000,0.953,-0.394,0.341,13.03,-7.48,8.03
573455.281000,0.922,-0.322,0.324,18.19,0.09,-5.92
573455.328000,0.92,-0.235,0.278,16.05,3.94,2.2
573455.375000,0.881,-0.345,0.256,11.41,2.11,4.58
573455.421000,0.833,-0.28,0.3,12.09,-2.14,0.21
573455.468000,0.865,-0.27,0.26,6.78,-7.54,-3.17
573455.515000,0.871,-0.3,0.318,-1.8,-4.91,4.18
573455.562000,0.946,-0.297,0.395,1.43,-4.49,9.43
573455.609000,1.034,-0.344,0.681,10.9,7.45,-3.02
573455.671000,0.952,-0.513,0.84,39.34,24.75,-18.74
573455.718000,0.797,-0.244,0.931,64.46,29.42,-41.78
573455.765000,0.761,0.115,0.747,46.78,6.2,-38.42
573455.812000,0.738,-0.02,0.724,20.23,-9.83,-19.38
573455.859000,0.844,-0.168,0.461,8.79,-34.79,-12.02
573455.906000,0.84,-0.086,0.282,-19.29,-57.13,-3.11
573455.953000,0.813,-0.197,0.064,-30.85,-75.14,4.88
573456.000000,0.783,-0.312,-0.211,-44.98,-88.9,9.95
573456.046000,0.726,-0.252,-0.348,-38.09,-80.36,38.64
573456.093000,0.707,-0.335,-0.295,-40.99,-82.43,33.94
573456.140000,0.911,-0.466,-0.431,-27.59,-81.03,12.12
573456.187000,0.942,-0.144,-0.323,-9.74,-36.65,-12.3
573456.234000,0.867,-0.035,-0.218,-7.48,-33.36,6.2
573456.281000,0.922,-0.272,-0.193,-9.89,-35.68,21.61
573456.328000,0.995,-0.365,-0.227,-7.75,-27.53,-1.98
573456.375000,0.941,-0.324,-0.176,-4.21,-26.76,-3.27
573456.421000,1.008,-0.283,-0.273,2.5,-20.14,-2.2
573456.468000,0.969,-0.297,-0.193,-0.61,-17.73,0.4
573456.515000,0.965,-0.296,-0.224,4.21,-15.66,-10.5
573456.562000,0.967,-0.215,-0.226,3.02,-13.15,-7.11
573456.609000,0.984,-0.251,-0.245,1.31,-1.8,-2.14
573456.656000,0.94,-0.231,-0.203,-0.79,-6.87,-2.5
573456.703000,0.922,-0.234,-0.186,-5.95,-8.91,1.92
573456.750000,0.928,-0.309,-0.265,0.64,-8.0,-1.22
573456.796000,0.891,-0.24,-0.223,-4.12,-11.08,-9.55
573456.843000,0.903,-0.201,-0.277,-0.15,-6.47,4.33
573456.890000,0.882,-0.267,-0.247,-5.37,-9.89,1.77
573456.937000,0.892,-0.209,-0.318,-1.13,-16.91,-0.92
573456.984000,0.901,-0.242,-0.286,3.69,-5.77,4.79
573457.031000,0.929,-0.261,-0.3,2.23,-6.93,6.04
573457.078000,0.9,-0.281,-0.302,4.55,-2.59,-5.16
573457.125000,0.894,-0.201,-0.287,2.29,-10.86,2.5
573457.171000,0.918,-0.28,-0.316,0.37,-4.46,6.5
573457.218000,0.899,-0.287,-0.302,5.52,-3.69,-0.34
573457.265000,0.876,-0.218,-0.288,3.14,-3.85,7.81
573457.312000,0.871,-0.292,-0.282,0.18,-5.55,3.66
573457.359000,0.896,-0.225,-0.319,1.5,-8.73,-0.03
573457.406000,0.89,-0.274,-0.323,1.77,-5.28,8.73
573457.453000,0.882,-0.294,-0.328,1.07,-3.08,3.33
573457.500000,0.865,-0.282,-0.311,-0.31,-1.31,0.64
573457.546000,0.86,-0.29,-0.302,0.79,-3.54,2.81
573457.593000,0.884,-0.309,-0.323,0.95,-2.23,3.27
573457.640000,0.893,-0.294,-0.304,2.01,-1.83,-2.38
573457.687000,0.896,-0.232,-0.286,3.42,-2.78,-1.46
573457.734000,0.906,-0.24,-0.316,-1.31,-7.2,7.45
573457.781000,0.865,-0.238,-0.294,-4.33,-8.06,2.87
573457.828000,0.898,-0.294,-0.377,-3.6,-12.94,9.95
573457.875000,0.899,-0.33,-0.367,-3.2,-7.05,1.98
573457.921000,0.875,-0.326,-0.363,-2.96,-4.33,-0.09
573457.968000,0.878,-0.331,-0.362,0.98,-3.91,1.07
573458.015000,0.872,-0.293,-0.338,1.22,-4.52,1.59
573458.062000,0.869,-0.314,-0.373,6.2,-4.27,9.64
573458.109000,0.854,-0.304,-0.344,0.73,-2.81,-3.08
573458.156000,0.881,-0.313,-0.403,7.54,-6.26,6.2
573458.203000,0.861,-0.295,-0.358,5.95,0.24,2.14
573458.250000,0.865,-0.313,-0.35,4.21,-1.95,3.2
573458.296000,0.857,-0.318,-0.361,1.95,-1.43,-1.07
573458.343000,0.856,-0.322,-0.372,-1.53,-3.75,-5.1
573458.390000,0.856,-0.296,-0.368,-1.04,-3.3,-4.27
573458.437000,0.852,-0.288,-0.368,2.04,-3.05,2.84
573458.484000,0.844,-0.313,-0.37,-0.7,-2.53,-1.28
573458.531000,0.861,-0.283,-0.386,-2.04,-2.69,-2.9
573458.578000,0.865,-0.295,-0.397,-3.66,1.53,0.15
573458.625000,0.848,-0.295,-0.372,-4.12,1.74,0.98
573458.671000,0.841,-0.304,-0.37,1.74,3.2,10.59
573458.718000,0.836,-0.343,-0.362,-3.66,0.18,3.57
573458.765000,0.862,-0.341,-0.391,0.43,-0.06,0.67
573458.812000,0.859,-0.328,-0.387,-0.43,-0.21,0.21
573458.859000,0.862,-0.312,-0.403,4.61,2.44,2.11
573458.906000,0.846,-0.308,-0.354,-0.24,-1.07,0.18
573458.953000,0.858,-0.31,-0.384,-2.26,-5.01,-1.86
573459.000000,0.863,-0.325,-0.389,0.27,-0.37,1.62
573459.046000,0.853,-0.348,-0.383,2.23,-2.75,0.61
573459.093000,0.849,-0.314,-0.383,2.78,1.53,-1.43
573459.140000,0.851,-0.283,-0.37,-3.3,-4.27,-6.01
573459.187000,0.852,-0.294,-0.399,-2.11,-1.37,-2.26
573459.234000,0.863,-0.311,-0.413,-4.0,-1.31,1.01
573459.281000,0.857,-0.332,-0.412,-3.45,3.91,0.06
573459.328000,0.848,-0.325,-0.392,-3.48,10.22,-4.79
573459.375000,0.833,-0.281,-0.369,-0.64,7.54,1.16
573459.421000,0.828,-0.261,-0.338,-2.01,4.88,1.46
573459.468000,0.848,-0.296,-0.369,-3.27,-1.1,6.93
573459.515000,0.837,-0.317,-0.389,-4.61,-1.8,0.46
573459.562000,0.857,-0.318,-0.401,-2.17,-0.61,-1.4
573459.609000,0.851,-0.297,-0.367,-1.25,0.61,-1.5
573459.656000,0.876,-0.308,-0.396,1.04,2.2,1.68
573459.703000,0.856,-0.313,-0.363,0.24,3.75,2.29
573459.750000,0.863,-0.313,-0.386,-0.55,0.82,-2.01
573459.796000,0.849,-0.28,-0.353,-1.04,2.14,-1.22
573459.843000,0.868,-0.317,-0.376,-3.6,0.24,0.09
573459.890000,0.873,-0.302,-0.361,2.08,5.49,0.27
573459.937000,0.856,-0.294,-0.341,-0.37,2.62,0.24
573460.000000,0.861,-0.295,-0.37,-1.68,-1.07,-1.83
573460.046000,0.855,-0.32,-0.346,0.64,4.43,3.33
573460.093000,0.856,-0.318,-0.361,-0.12,1.8,-3.05
573460.140000,0.858,-0.282,-0.358,1.68,3.51,0.4
573460.187000,0.857,-0.298,-0.335,-0.89,1.56,0.61
573460.234000,0.873,-0.31,-0.363,1.8,-0.31,2.81
573460.281000,0.862,-0.309,-0.344,-0.67,2.81,-1.56
573460.328000,0.858,-0.301,-0.349,-0.85,0.0,-5.1
573460.375000,0.867,-0.277,-0.379,0.67,2.2,0.7
573460.421000,0.855,-0.326,-0.372,1.95,1.16,2.75
573460.468000,0.851,-0.304,-0.361,-0.21,0.92,-2.23
573460.515000,0.852,-0.277,-0.346,0.7,1.16,0.85
573460.562000,0.861,-0.276,-0.358,0.21,-0.21,0.64
573460.609000,0.865,-0.285,-0.357,-1.25,0.12,3.17
573460.656000,0.861,-0.324,-0.353,-2.23,0.58,-5.58
573460.703000,0.861,-0.264,-0.371,-5.1,-0.7,-9.03
573460.750000,0.868,-0.306,-0.38,0.31,1.07,3.42
573460.796000,0.899,-0.374,-0.48,3.91,3.91,2.75
573460.843000,0.973,-0.434,-0.705,5.62,17.24,0.43
573460.890000,0.78,-0.64,-1.368,39.12,43.52,28.23
573460.937000,0.374,-0.472,-1.255,80.63,58.08,6.81
573460.984000,0.462,-0.172,-0.819,81.03,53.59,12.88
573461.031000,0.599,-0.003,-0.221,18.49,58.2,-25.88
573461.078000,0.616,-0.165,0.337,60.21,111.79,-16.3
573461.125000,0.592,-0.095,0.461,70.99,88.44,-24.72
573461.171000,0.844,-0.033,0.473,58.78,80.81,13.79
573461.234000,0.95,-0.074,0.341,-5.22,30.85,14.56
573461.281000,0.849,-0.666,0.622,-45.08,9.83,78.01
573461.328000,0.987,-0.636,0.485,-34.21,-25.3,23.83
573461.375000,1.266,-0.455,0.262,-30.0,-15.66,19.04
573461.421000,1.194,-0.509,0.242,-33.94,18.77,14.83
573461.468000,0.964,-0.479,0.272,-29.21,42.45,0.46
573461.531000,0.852,-0.52,0.22,-15.75,25.88,-4.3
573461.578000,0.856,-0.417,0.158,-2.72,10.53,-12.21
573461.625000,0.854,-0.434,0.157,-2.17,11.66,-3.11
573461.671000,0.831,-0.498,0.147,-2.5,-1.13,-6.16
573461.718000,0.846,-0.44,0.142,0.12,-0.27,-3.14
573461.781000,0.872,-0.454,0.123,-6.81,-5.71,-3.69
573461.828000,0.895,-0.412,0.13,-2.78,1.19,2.17
573461.875000,0.879,-0.448,0.128,-7.17,1.95,0.49
573461.921000,0.88,-0.493,0.109,-8.24,2.66,-1.19
573461.984000,0.871,-0.448,0.148,-0.52,-0.64,10.53
573462.031000,0.87,-0.477,0.125,-5.68,-4.58,4.82
573462.078000,0.86,-0.496,0.117,0.85,-1.22,2.23
573462.125000,0.821,-0.451,0.183,2.11,-3.81,4.58
573462.171000,0.847,-0.519,0.144,3.14,-13.43,2.11
573462.218000,0.871,-0.434,0.148,6.44,-5.31,-6.38
573462.265000,0.882,-0.429,0.105,4.27,-8.58,-0.49
573462.312000,0.911,-0.43,0.081,-1.1,-7.75,-2.99
573462.359000,0.94,-0.412,0.068,-4.91,1.28,-8.48
573462.406000,0.948,-0.446,0.051,-12.82,-2.29,-12.15
573462.453000,0.939,-0.424,0.013,-14.86,4.24,-25.27
573462.500000,0.857,-0.439,0.093,-13.0,7.32,-15.05
573462.546000,0.81,-0.477,0.117,-14.01,0.67,-16.42
573462.593000,0.765,-0.469,0.155,-2.29,-4.3,-8.76
573462.640000,0.837,-0.411,0.08,0.95,-12.51,-3.39
573462.687000,0.909,-0.364,0.044,-4.64,-10.77,1.95
573462.734000,1.036,-0.409,0.025,-6.9,-16.14,-10.41
573462.781000,1.222,-0.282,-0.085,-12.09,-26.55,-57.83
573462.828000,1.277,-0.188,-0.107,-24.72,-16.36,-81.76
573462.875000,1.254,-0.312,-0.15,-33.72,-8.03,-89.51
573462.921000,1.109,-0.358,-0.068,-39.22,11.47,-106.63
573462.968000,1.012,-0.287,0.002,-32.38,20.39,-104.86
573463.015000,0.973,-0.163,-0.006,-22.98,4.3,-106.66
573463.062000,0.986,0.002,0.027,-19.44,3.81,-112.25
573463.109000,0.973,0.107,0.074,-19.93,-4.12,-110.39
573463.156000,0.907,0.235,0.056,-30.03,-13.34,-127.87
573463.203000,0.754,0.459,0.136,-29.48,-12.02,-114.51
573463.250000,0.763,0.366,0.026,-27.34,-42.18,-86.7
573463.296000,0.713,0.445,0.171,-21.94,-34.18,-69.64
573463.343000,0.906,0.186,-0.075,-16.33,-55.33,-44.01
573463.390000,0.675,0.458,0.195,22.86,-21.06,-49.38
573463.437000,0.401,0.719,0.27,37.08,-33.63,-18.68
573463.484000,0.405,0.816,0.028,3.33,-83.41,-31.56
573463.531000,0.329,0.854,-0.085,18.89,-51.61,52.71
573463.578000,0.574,0.39,-0.248,12.82,-45.72,115.21
573463.625000,0.61,0.3,-0.204,19.04,-62.5,107.67
573463.671000,0.586,0.155,-0.237,98.73,-50.11,215.19
573463.718000,0.757,0.084,-0.201,70.86,-40.07,171.39
573463.765000,0.878,0.325,-0.368,1.65,-77.82,79.99
573463.812000,0.956,0.406,-0.613,-3.48,-80.02,161.02
573463.859000,0.92,0.091,-0.935,-25.03,-77.36,184.18
573463.906000,0.874,-0.201,-0.903,-39.7,-49.04,181.22
573463.953000,0.875,-0.448,-1.447,-84.84,-12.05,152.99
573464.000000,0.64,-0.664,-1.265,-130.22,15.99,109.84
573464.062000,0.63,-0.955,-1.324,-76.14,72.15,103.06
573464.109000,0.429,-0.772,-0.711,-30.95,107.67,71.72
573464.156000,0.432,-0.714,-0.532,-59.66,86.7,13.37
573464.203000,0.359,-0.489,-0.293,-31.37,81.39,6.84
573464.250000,0.246,-0.422,-0.075,-30.18,47.73,13.55
573464.296000,0.281,-0.33,0.014,-35.65,-21.3,-0.64
573464.359000,0.406,-0.183,-0.272,-31.8,-73.85,10.32
573464.406000,0.652,-0.373,-0.599,-36.32,-89.45,12.09
573464.453000,0.8,-0.405,-0.964,-21.49,-104.86,37.9
573464.500000,1.025,-0.732,-1.423,30.09,-8.82,33.05
573464.546000,0.869,-0.533,-1.117,3.27,5.19,-4.18
573464.593000,0.831,-0.639,-1.255,-34.79,43.61,-35.92
573464.640000,0.659,-0.445,-1.023,-8.3,72.94,-34.61
573464.687000,0.55,-0.356,-0.656,-26.22,83.74,-41.87
573464.734000,0.574,-0.337,-0.567,-6.23,72.91,-33.48
573464.781000,0.55,-0.193,-0.426,-40.35,63.54,-64.55
573464.828000,0.472,-0.002,-0.187,-19.93,48.1,-35.77
573464.875000,0.356,-0.026,0.087,-12.18,26.43,-15.93
573464.921000,0.357,-0.05,0.072,-41.14,-78.07,-13.61
573464.968000,0.245,-0.042,0.043,-64.64,-192.66,9.37
573465.015000,0.004,-0.006,-0.231,-165.14,-315.44,-10.47
573465.062000,0.006,0.208,-0.783,-207.74,-320.6,-8.33
573465.109000,-0.14,0.46,-0.64,-261.12,-271.58,-37.51
573465.156000,-0.194,0.793,-0.903,-120.15,-231.85,-20.36
573465.203000,-0.093,0.969,-1.015,-143.13,-162.3,0.03
573465.250000,-0.482,0.85,-0.535,-132.33,-153.42,-14.16
573465.296000,-0.29,0.818,-0.918,-70.13,-158.15,-5.58
573465.343000,-0.372,1.081,-1.04,-74.89,-43.89,22.58
573465.390000,-0.312,0.933,-1.004,8.97,-9.22,17.82
573465.437000,-0.387,0.935,-1.058,91.77,22.31,0.12
573465.484000,-0.382,1.09,-1.134,157.35,40.77,9.16
573465.531000,-0.615,1.062,-1.105,134.5,62.78,51.36
573465.593000,-0.418,0.866,-1.282,220.37,97.11,88.47
573465.640000,-0.495,0.599,-1.113,165.93,176.82,99.46
573465.687000,-0.328,0.104,-0.884,180.49,186.5,110.39
573465.734000,-0.368,0.02,-0.919,225.47,139.99,77.52
573465.781000,-0.28,-0.557,-0.878,212.16,60.34,26.49
573465.828000,-0.37,-0.52,-0.91,212.26,22.77,-85.6
573465.875000,-0.251,-0.563,-0.768,155.77,27.28,-116.31
573465.921000,-0.199,-0.567,-0.445,153.08,-41.69,-160.77
573465.968000,-0.004,-0.365,-0.492,119.75,-88.26,-159.28
573466.015000,0.175,-0.249,-0.422,22.83,-110.84,-147.1
573466.062000,0.304,-0.256,-0.486,-7.9,-110.45,-127.02
573466.125000,0.23,-0.118,-0.468,-24.69,-98.21,-89.91
573466.171000,0.272,-0.165,-0.56,9.8,-108.07,-43.49
573466.234000,0.263,-0.209,-0.747,-22.4,-122.71,-22.46
573466.281000,0.24,-0.121,-0.836,-0.06,-125.89,4.39
573466.328000,0.279,-0.273,-0.978,-19.93,-110.08,17.49
573466.375000,0.112,-0.194,-0.99,12.24,-65.68,39.28
573466.421000,-0.019,-0.13,-1.136,-59.24,-56.52,33.72
573466.468000,-0.051,-0.451,-1.245,-95.95,-53.41,27.44
573466.515000,-0.269,-0.306,-1.173,88.84,-60.52,17.98
573466.562000,-0.235,-0.314,-1.482,10.01,-45.72,31.8
573466.609000,-0.132,-0.715,-1.191,18.74,103.64,-26.49
573466.656000,-0.161,-0.991,-0.982,193.73,159.67,-42.94
573466.703000,-0.063,-0.957,-1.147,330.36,175.6,-90.91
573466.750000,0.319,-0.992,-0.946,257.06,140.35,-71.41
573466.812000,0.4,-0.981,-0.622,272.71,96.71,-41.26
573466.859000,0.483,-0.987,-0.575,190.98,134.16,-106.97
573466.906000,0.438,-1.096,-0.408,47.43,142.64,-212.87
573466.953000,0.381,-0.806,-0.201,-43.09,160.68,-290.48
573467.000000,0.33,-0.401,0.086,-47.0,144.23,-306.56
573467.046000,0.567,-0.112,0.23,-15.26,111.7,-159.52
573467.093000,0.632,-0.118,0.237,-2.5,50.33,-97.23
573467.140000,0.679,-0.206,0.186,19.23,9.22,-44.13
573467.187000,0.693,-0.212,0.358,17.12,-21.76,-17.79
573467.234000,0.804,-0.157,0.181,9.58,-48.71,-3.75
573467.281000,1.033,-0.209,0.127,1.8,-42.02,-2.23
573467.328000,1.052,-0.196,0.158,6.78,-21.03,12.27
573467.375000,0.99,-0.286,0.217,-1.98,-16.08,5.86
573467.437000,0.956,-0.239,0.226,-1.5,-17.4,11.41
573467.484000,0.943,-0.231,0.275,1.65,-13.64,3.42
573467.531000,0.959,-0.22,0.182,-1.1,-4.18,9.86
573467.578000,0.952,-0.359,0.13,-4.09,-14.34,12.18
573467.625000,0.967,-0.348,0.135,-2.9,-2.5,0.61
573467.671000,0.946,-0.296,0.26,6.38,-1.86,6.56
573467.718000,1.0,-0.262,0.274,6.59,-0.31,-5.62
573467.765000,1.077,-0.284,0.539,5.55,3.2,-7.2
573467.812000,0.994,-0.368,0.734,28.08,23.1,-23.29
573467.859000,0.956,-0.251,0.626,33.97,9.7,-42.76
573467.906000,0.846,-0.12,0.424,28.99,4.55,-35.52
573467.953000,0.934,-0.196,0.136,13.58,-6.32,-25.54
573468.000000,0.831,-0.064,0.224,3.3,-14.92,-22.52
573468.046000,0.736,-0.048,0.244,-9.67,-43.06,-8.67
573468.109000,0.778,-0.077,-0.078,-13.37,-72.79,1.25
573468.156000,0.845,-0.167,-0.234,-41.2,-99.28,-8.76
573468.203000,0.881,-0.151,-0.419,-49.59,-109.23,-7.42
573468.250000,0.933,-0.177,-0.637,-51.61,-106.39,-0.55
573468.296000,0.968,-0.187,-0.604,-35.77,-63.88,-15.08
573468.343000,0.847,0.033,-0.442,-27.65,-47.94,-8.0
573468.390000,0.94,-0.077,-0.602,-23.93,-45.26,28.11
573468.437000,0.967,-0.225,-0.467,-11.14,-11.14,26.8
573468.484000,0.929,-0.19,-0.407,-9.64,-0.7,0.15
573468.531000,0.965,-0.131,-0.402,-11.66,-15.9,-0.7
573468.578000,0.939,-0.147,-0.359,-3.88,1.25,-1.56
573468.625000,0.863,-0.088,-0.325,-3.66,-6.56,11.35
573468.671000,0.895,-0.203,-0.355,-2.87,-1.16,14.22
573468.718000,0.851,-0.211,-0.337,-3.42,-5.65,-5.62
573468.765000,0.932,-0.17,-0.384,2.84,-8.33,-1.71
573468.812000,0.879,-0.098,-0.305,-0.7,-3.57,-2.53
573468.859000,0.942,-0.209,-0.427,3.78,-5.31,-2.96
573468.906000,0.904,-0.096,-0.327,1.98,7.97,-9.43
573468.953000,0.902,-0.114,-0.352,0.76,1.83,3.91
573469.000000,0.916,-0.123,-0.365,-1.31,4.12,-0.27
573469.046000,0.885,-0.137,-0.348,-1.77,0.18,5.58
573469.093000,0.9,-0.166,-0.378,1.98,2.32,4.15
573469.140000,0.895,-0.167,-0.372,0.64,3.69,-5.16
573469.187000,0.859,-0.106,-0.33,1.4,3.42,1.71
573469.234000,0.893,-0.129,-0.347,-0.7,-1.04,1.77
573469.281000,0.889,-0.134,-0.342,-0.92,2.96,0.0
573469.328000,0.883,-0.148,-0.334,-1.68,0.24,-0.4
573469.375000,0.9,-0.138,-0.362,0.21,-1.89,4.85
573469.421000,0.915,-0.164,-0.361,-1.98,-0.55,-0.12
573469.468000,0.894,-0.148,-0.36,-1.53,0.31,1.53
573469.515000,0.922,-0.155,-0.387,1.04,-0.92,1.65
573469.562000,0.914,-0.129,-0.366,-1.1,-0.92,-0.55
573469.609000,0.905,-0.137,-0.377,0.46,2.17,2.5
573469.656000,0.877,-0.147,-0.339,-1.37,-1.5,4.79
573469.703000,0.907,-0.184,-0.362,-1.77,-1.13,0.89
573469.750000,0.871,-0.133,-0.351,-0.61,-2.01,2.08
573469.796000,0.9,-0.156,-0.385,2.2,-0.31,5.22
573469.843000,0.89,-0.155,-0.358,-0.76,-1.31,1.68
573469.890000,0.91,-0.157,-0.368,-0.73,-3.14,1.74
573469.937000,0.906,-0.137,-0.381,0.49,-2.11,0.7
573469.984000,0.912,-0.189,-0.377,-0.58,-1.4,3.66
573470.031000,0.9,-0.153,-0.407,4.24,4.12,2.78
573470.078000,0.877,-0.149,-0.364,2.29,2.38,2.72
573470.125000,0.879,-0.164,-0.365,1.89,0.4,1.71
573470.171000,0.891,-0.192,-0.398,1.62,-3.85,3.39
573470.218000,0.944,-0.255,-0.443,6.68,7.51,-9.25
573470.265000,0.926,-0.171,-0.517,14.77,7.32,-7.39
573470.312000,0.87,-0.167,-0.454,17.82,14.95,4.85
573470.359000,0.871,-0.159,-0.497,-2.32,-0.21,-1.4
573470.406000,0.879,-0.177,-0.384,23.68,23.13,1.4
573470.453000,0.879,-0.17,-0.189,5.68,17.52,-3.3
573470.500000,0.913,-0.093,-0.089,2.08,-7.63,-13.49
573470.546000,0.905,-0.042,-0.124,-3.39,-2.93,-6.93
573470.593000,0.885,-0.18,-0.253,-5.25,-6.68,5.52
573470.640000,0.905,-0.197,-0.373,-4.21,-3.81,6.07
573470.687000,0.894,-0.2,-0.384,0.64,2.9,8.27
573470.734000,0.927,-0.205,-0.411,4.21,4.97,2.66
573470.781000,0.915,-0.177,-0.451,7.23,3.69,6.41
573470.828000,0.904,-0.221,-0.38,7.97,15.23,5.77
573470.875000,0.875,-0.199,-0.348,17.3,12.27,5.83
573470.937000,0.88,-0.143,-0.224,4.7,6.01,-2.87
573470.984000,0.94,-0.2,-0.344,9.58,2.96,10.13
573471.031000,0.922,-0.203,-0.269,0.55,9.58,-0.12
573471.078000,0.924,-0.144,-0.254,1.07,10.5,3.97
573471.125000,0.911,-0.175,-0.238,-6.65,9.4,5.07
573471.171000,0.909,-0.265,-0.202,4.49,4.97,13.92
573471.218000,0.908,-0.218,-0.217,-4.88,8.3,-2.26
573471.265000,0.91,-0.224,-0.157,-0.21,1.98,4.94
573471.312000,0.937,-0.247,-0.182,-7.26,4.76,10.77
573471.359000,0.943,-0.271,-0.253,-3.08,3.54,7.05
573471.406000,0.896,-0.188,-0.17,-2.87,8.79,4.21
573471.453000,0.909,-0.188,-0.244,-8.21,-2.17,9.0
573471.500000,0.921,-0.23,-0.247,-14.34,2.72,6.9
573471.546000,0.95,-0.263,-0.283,-5.13,1.92,8.91
573471.593000,0.932,-0.281,-0.276,-4.85,6.16,4.61
573471.640000,0.923,-0.26,-0.238,-2.32,3.11,11.84
573471.703000,0.918,-0.28,-0.29,-5.31,4.03,8.15
573471.750000,0.92,-0.315,-0.334,0.43,8.06,6.32
573471.796000,0.908,-0.325,-0.377,-2.75,9.64,4.58
573471.843000,0.857,-0.396,-0.415,4.24,12.94,10.19
573471.890000,0.782,-0.35,-0.357,5.98,19.78,1.95
573471.937000,0.816,-0.322,-0.291,11.26,20.45,-1.13
573471.984000,0.874,-0.273,-0.168,19.29,31.86,-4.79
573472.031000,1.0,-0.102,-0.118,15.87,51.58,-5.49
573472.078000,0.923,-0.245,0.165,13.82,56.79,21.49
573472.125000,0.93,-0.325,0.266,-4.79,43.82,15.99
573472.171000,0.986,-0.348,0.321,6.04,25.12,20.17
573472.218000,1.01,-0.26,0.213,-2.87,20.26,-0.98
573472.265000,1.009,-0.315,0.145,-5.68,11.14,8.33
573472.312000,0.964,-0.321,0.017,-6.65,1.25,-0.18
573472.359000,0.932,-0.361,0.027,-1.83,-3.57,6.93
573472.406000,0.868,-0.25,0.104,-4.33,-0.95,-4.46
573472.453000,0.894,-0.383,0.101,-7.51,-7.69,-3.81
573472.515000,0.968,-0.402,-0.01,4.18,-9.03,-0.21
573472.562000,0.962,-0.347,-0.059,6.78,8.27,-2.96
573472.609000,0.892,-0.285,0.013,3.85,4.85,2.01
573472.656000,0.92,-0.339,-0.025,-1.77,-1.71,-1.86
573472.703000,0.893,-0.316,0.093,2.5,-4.73,2.41
573472.750000,0.905,-0.304,0.186,-1.1,-11.9,2.38
573472.796000,0.968,-0.268,0.411,-1.92,-12.67,1.65
573472.843000,0.904,-0.235,0.499,-0.82,-8.76,15.93
573472.890000,1.071,-0.375,0.363,4.49,5.22,-36.87
573472.953000,1.019,-0.341,0.157,8.88,11.29,-25.18
573473.000000,0.972,-0.37,-0.003,15.72,8.64,-15.72
573473.046000,0.771,-0.029,0.243,-10.07,-30.09,-21.58
573473.093000,0.833,-0.175,-0.133,-3.05,-47.3,23.19
573473.140000,0.879,-0.446,-0.224,-33.81,-60.34,10.04
573473.187000,0.919,-0.44,-0.513,-24.9,-64.76,7.42
573473.234000,0.902,-0.262,-0.524,-23.1,-46.78,-9.67
573473.281000,0.845,-0.154,-0.483,-24.2,-52.86,-11.29
573473.328000,0.784,-0.122,-0.499,-28.72,-51.3,-16.6
573473.375000,0.847,-0.158,-0.608,-31.56,-54.08,4.09
573473.421000,0.889,-0.303,-0.674,-14.56,-24.02,5.77
573473.468000,0.791,-0.235,-0.485,-7.78,-11.05,-2.29
573473.515000,0.806,-0.176,-0.45,-9.43,-10.65,-3.02
573473.562000,0.826,-0.218,-0.384,-7.11,-10.77,3.88
573473.609000,0.889,-0.274,-0.429,-8.45,-8.97,-0.98
573473.656000,0.873,-0.283,-0.415,-2.26,-3.88,1.46
573473.703000,0.846,-0.267,-0.393,-5.37,-6.44,2.78
573473.750000,0.823,-0.209,-0.406,-6.84,-16.36,0.98
573473.796000,0.862,-0.235,-0.42,-1.07,-8.18,1.86
573473.843000,0.885,-0.249,-0.459,-4.33,-11.6,-5.86
573473.890000,0.867,-0.185,-0.451,1.86,-0.82,-0.82
573473.937000,0.874,-0.259,-0.43,1.16,2.75,-3.14
573473.984000,0.888,-0.189,-0.449,4.58,1.1,-8.67
573474.031000,0.866,-0.183,-0.412,4.67,1.25,5.22
573474.078000,0.842,-0.177,-0.431,1.65,-0.67,-0.82
573474.125000,0.839,-0.248,-0.44,0.89,-0.06,5.04
573474.171000,0.811,-0.241,-0.414,0.15,-2.35,-2.29
573474.218000,0.816,-0.224,-0.449,3.45,1.53,-1.04
573474.265000,0.812,-0.24,-0.426,2.78,-2.2,-4.0
573474.312000,0.839,-0.194,-0.432,0.0,-1.19,-7.6
573474.359000,0.855,-0.245,-0.455,3.75,-1.56,-0.37
573474.406000,0.838,-0.166,-0.406,1.65,-1.59,-5.07
573474.453000,0.881,-0.178,-0.457,-2.9,-4.73,1.04
573474.500000,0.869,-0.219,-0.431,-2.96,-4.03,2.56
573474.546000,0.867,-0.183,-0.456,-9.67,-5.16,-4.09
573474.593000,0.846,-0.194,-0.421,-4.21,-3.97,8.88
573474.640000,0.832,-0.263,-0.486,-2.14,-5.4,-1.25
573474.687000,0.817,-0.234,-0.451,3.27,-0.98,-4.12
573474.734000,0.807,-0.226,-0.452,9.22,-5.19,-2.62
573474.781000,0.851,-0.238,-0.493,7.42,-1.71,-5.43
573474.828000,0.867,-0.187,-0.48,9.4,-1.19,-9.58
573474.875000,0.85,-0.205,-0.49,13.28,0.7,-5.37
573474.921000,0.862,-0.171,-0.463,8.94,0.76,-1.68
573474.968000,0.858,-0.212,-0.449,6.13,1.56,-6.29
573475.015000,0.858,-0.171,-0.444,5.22,1.95,-5.89
573475.062000,0.865,-0.199,-0.467,6.41,-0.09,-1.07
573475.109000,0.839,-0.208,-0.459,4.36,4.12,-5.28
573475.156000,0.836,-0.197,-0.443,4.64,0.73,-3.48
573475.203000,0.844,-0.224,-0.465,5.71,3.2,-3.51
573475.250000,0.851,-0.211,-0.449,8.88,0.67,-1.86
573475.296000,0.831,-0.184,-0.433,8.51,2.78,-1.77
573475.343000,0.823,-0.204,-0.427,8.82,-1.77,1.37
573475.390000,0.846,-0.222,-0.45,13.52,9.28,-1.68
573475.437000,0.845,-0.213,-0.389,9.37,0.49,-1.74
573475.484000,0.856,-0.211,-0.456,12.39,-16.82,4.79
573475.531000,0.844,-0.232,-0.402,8.18,5.13,6.29
573475.578000,0.828,-0.243,-0.41,7.75,-2.2,-0.64
573475.625000,0.833,-0.205,-0.42,-4.18,-2.87,-10.74
573475.671000,0.849,-0.227,-0.442,6.65,-8.76,7.72
573475.718000,0.865,-0.255,-0.47,-1.1,2.35,-1.59
573475.781000,0.837,-0.222,-0.423,3.17,-4.73,3.48
573475.828000,0.834,-0.242,-0.453,-0.31,-2.08,0.58
573475.875000,0.832,-0.249,-0.439,3.33,-3.85,1.37
573475.921000,0.865,-0.256,-0.479,3.51,1.28,0.18
573475.968000,0.839,-0.252,-0.432,2.17,0.03,-0.92
573476.015000,0.848,-0.233,-0.45,3.57,-5.86,-0.73
573476.062000,0.84,-0.213,-0.446,3.63,-0.34,2.87
573476.109000,0.835,-0.26,-0.449,4.46,-2.75,7.87
573476.156000,0.822,-0.255,-0.439,1.07,0.0,-0.64
573476.203000,0.825,-0.241,-0.434,0.61,-3.14,0.73
573476.250000,0.823,-0.254,-0.461,3.42,-5.74,3.08
573476.296000,0.819,-0.232,-0.47,3.72,-3.2,2.47
573476.343000,0.822,-0.242,-0.451,1.68,-3.57,0.85
573476.390000,0.829,-0.243,-0.473,1.46,-5.31,2.32
573476.437000,0.824,-0.253,-0.486,-1.95,-3.69,-0.4
573476.484000,0.826,-0.229,-0.48,-0.37,-2.01,-0.55
573476.531000,0.825,-0.263,-0.482,-0.15,-0.73,3.63
573476.578000,0.826,-0.282,-0.493,-0.95,0.55,0.82
573476.625000,0.82,-0.279,-0.472,0.89,1.4,-1.01
573476.671000,0.819,-0.265,-0.476,1.8,-0.73,1.28
573476.718000,0.818,-0.269,-0.48,3.23,2.14,1.77
573476.765000,0.809,-0.257,-0.454,4.94,2.81,3.72
573476.828000,0.808,-0.258,-0.461,0.24,1.74,-0.09
573476.875000,0.808,-0.261,-0.446,1.13,-2.29,3.23
573476.921000,0.827,-0.266,-0.494,-0.92,-3.57,2.56
573476.968000,0.819,-0.282,-0.481,2.17,-1.28,4.82
573477.015000,0.826,-0.286,-0.479,-0.24,-0.15,0.7
573477.062000,0.827,-0.285,-0.482,-1.22,-1.98,-0.67
573477.109000,0.836,-0.291,-0.511,1.16,-0.27,0.73
573477.156000,0.826,-0.286,-0.476,1.89,1.4,0.82
573477.203000,0.806,-0.269,-0.481,-0.61,0.24,0.82
573477.250000,0.793,-0.28,-0.485,2.47,-0.15,3.39
573477.296000,0.795,-0.304,-0.479,3.39,-0.61,0.12
573477.343000,0.799,-0.298,-0.474,5.07,1.43,0.43
573477.390000,0.785,-0.302,-0.463,5.62,-1.62,-1.22
573477.437000,0.782,-0.29,-0.506,13.21,-6.01,7.26
573477.484000,0.777,-0.275,-0.566,27.86,-1.56,22.16
573477.531000,0.756,-0.213,-0.683,47.52,6.99,48.86
573477.578000,0.694,-0.149,-0.867,91.01,44.74,117.22
573477.625000,0.732,-0.211,-0.88,118.17,114.05,166.26
573477.671000,0.564,-0.282,-0.648,125.83,180.36,194.83
573477.718000,0.4,-0.428,-0.323,101.66,185.03,227.61
573477.765000,0.133,-0.562,0.013,73.46,199.87,222.97
573477.812000,-0.242,-0.895,0.416,34.15,166.63,185.67
573477.859000,-0.398,-1.077,0.638,14.47,93.57,129.09
573477.906000,-0.216,-1.195,0.582,-58.38,-24.66,-22.0
573477.953000,-0.055,-0.97,0.323,-53.29,-5.58,-11.14
573478.000000,-0.105,-0.982,0.419,-20.2,-21.61,53.01
573478.046000,-0.179,-1.14,0.274,-36.81,-26.58,24.66
573478.093000,-0.388,-0.951,0.466,-45.35,-49.17,11.6
573478.140000,-0.392,-0.998,0.315,-44.71,-99.61,21.33
573478.187000,0.038,-1.154,0.042,-61.65,-129.43,-31.62
573478.234000,0.064,-0.993,-0.004,-29.05,-106.14,-8.91
573478.281000,0.181,-1.089,-0.066,0.98,-101.99,34.24
573478.328000,0.135,-1.132,-0.094,-5.92,-68.48,12.42
573478.375000,0.002,-1.091,0.0,-7.84,-71.66,7.81
573478.421000,0.004,-1.106,-0.108,-3.17,-99.22,4.91
573478.468000,0.033,-1.018,-0.145,-18.68,-92.99,-22.16
573478.515000,0.015,-0.955,-0.116,-20.02,-97.2,-11.26
573478.562000,0.052,-0.984,-0.204,-13.25,-91.53,-4.3
573478.625000,-0.015,-0.975,-0.134,-16.45,-60.58,2.5
573478.671000,-0.026,-0.993,-0.163,-2.01,-37.66,17.94
573478.718000,-0.032,-1.031,-0.173,-3.27,-33.05,17.18
573478.765000,-0.027,-1.022,-0.191,5.86,-12.76,13.49
573478.812000,-0.033,-1.002,-0.219,4.21,4.06,2.56
573478.859000,-0.085,-0.972,-0.162,10.04,12.15,11.17
573478.906000,-0.105,-0.911,-0.118,4.52,5.28,9.86
573478.953000,-0.099,-0.85,-0.037,-4.12,-5.19,16.75
573479.000000,-0.104,-0.983,-0.035,-10.47,-15.9,23.32
573479.046000,-0.089,-1.087,-0.113,-14.01,-26.12,7.45
573479.093000,-0.048,-1.074,-0.19,3.69,-18.77,5.71
573479.140000,-0.075,-1.034,-0.144,14.07,-6.32,13.58
573479.187000,-0.124,-1.054,-0.147,24.02,0.27,16.24
573479.234000,-0.144,-0.976,-0.118,19.71,10.32,2.96
573479.281000,-0.179,-0.975,-0.068,15.26,-0.21,6.35
573479.328000,-0.169,-1.001,-0.066,4.67,5.04,-0.37
573479.375000,-0.181,-0.944,-0.02,-10.38,-15.47,-11.08
573479.421000,-0.17,-0.887,-0.045,-18.34,-30.03,-3.05
573479.484000,-0.003,-0.87,-0.124,-46.72,2.35,-8.12
573479.531000,-0.143,-0.925,-0.109,-11.69,-25.85,22.25
573479.578000,-0.127,-1.014,-0.16,6.2,-24.72,25.27
573479.625000,-0.226,-0.994,-0.013,-6.47,-33.78,6.13
573479.671000,-0.203,-0.961,-0.082,-16.85,-35.25,13.89
573479.718000,-0.242,-0.989,-0.037,-20.69,-36.68,6.78
573479.781000,-0.237,-0.89,-0.038,-2.01,-46.36,-0.89
573479.828000,-0.25,-0.905,-0.02,-6.1,-52.03,8.45
573479.875000,-0.281,-0.971,-0.041,-3.27,-47.61,14.25
573479.921000,-0.352,-1.073,-0.045,-6.26,-52.58,8.3
573479.968000,-0.312,-1.059,-0.086,-0.43,-57.74,6.2
573480.015000,-0.283,-1.064,-0.086,-4.43,-43.76,-4.61
573480.062000,-0.249,-1.017,-0.068,-7.2,-42.15,-11.63
573480.109000,-0.234,-1.008,-0.038,1.68,-36.47,-3.2
573480.156000,-0.21,-0.97,-0.049,11.02,-29.18,-5.22
573480.203000,-0.262,-0.923,-0.012,-12.7,-26.37,-14.04
573480.250000,-0.313,-0.996,-0.118,-17.06,-14.74,0.64
573480.296000,-0.283,-0.959,-0.04,-11.23,-7.57,-17.43
573480.343000,-0.23,-0.887,-0.034,-12.3,-11.78,-27.47
573480.390000,-0.141,-0.91,-0.096,-1.34,-11.35,-23.07
573480.437000,-0.216,-0.937,-0.101,-40.77,-21.39,-27.5
573480.484000,-0.258,-1.143,-0.224,-21.06,-14.28,-3.45
573480.531000,-0.258,-0.927,-0.202,5.25,18.04,-19.5
573480.578000,-0.168,-0.942,-0.182,9.37,31.25,-11.35
573480.625000,-0.106,-0.914,-0.198,0.24,46.39,-9.03
573480.671000,-0.159,-0.945,-0.128,-14.16,44.47,-9.19
573480.718000,-0.113,-0.95,-0.16,3.23,40.93,6.96
573480.765000,-0.125,-0.971,-0.113,1.34,41.05,2.14
573480.812000,-0.15,-1.005,-0.125,1.25,34.85,3.27
573480.859000,-0.144,-1.043,-0.148,11.38,33.91,4.52
573480.921000,-0.139,-0.964,-0.099,-1.22,27.16,-10.47
573480.968000,-0.121,-0.942,-0.127,4.0,23.38,-2.93
573481.015000,-0.135,-0.929,-0.079,-9.92,13.58,-2.5
573481.062000,-0.136,-0.97,-0.058,-5.77,6.65,0.06
573481.109000,-0.081,-1.019,-0.131,-14.5,1.59,-1.77
573481.156000,-0.11,-1.011,-0.118,-3.54,-7.23,18.62
573481.218000,-0.166,-1.017,-0.092,-7.11,-10.44,-5.4
573481.265000,-0.117,-0.956,-0.175,16.33,-11.69,2.87
573481.312000,-0.125,-1.013,-0.191,-8.85,-14.68,7.6
573481.359000,-0.131,-0.966,-0.196,-11.38,-9.67,-7.93
573481.406000,-0.118,-0.964,-0.198,-9.19,-10.25,0.95
573481.453000,-0.14,-0.97,-0.19,-8.15,-7.93,2.44
573481.500000,-0.135,-0.966,-0.206,-3.85,-7.84,11.11
573481.546000,-0.173,-0.964,-0.2,-18.19,-6.71,5.1
573481.593000,-0.16,-0.958,-0.208,-8.51,-4.58,1.98
573481.640000,-0.15,-0.972,-0.231,-9.89,-0.4,-1.34
573481.687000,-0.146,-0.968,-0.207,-5.77,-2.08,1.19
573481.734000,-0.145,-0.982,-0.209,5.4,2.62,3.48
573481.781000,-0.154,-0.99,-0.21,17.43,6.13,7.54
573481.828000,-0.143,-0.975,-0.203,4.7,1.89,8.42
573481.875000,-0.139,-0.996,-0.207,12.67,5.52,1.74
573481.921000,-0.162,-0.97,-0.138,0.67,5.28,-0.27
573481.968000,-0.189,-0.917,-0.12,-13.76,1.65,-20.14
573482.015000,-0.17,-0.921,-0.173,-10.35,-5.31,-4.85
573482.062000,-0.119,-0.977,-0.259,0.73,14.56,0.61
573482.109000,-0.134,-0.95,-0.244,-0.06,2.75,-4.91
573482.156000,-0.147,-0.956,-0.189,9.28,0.52,8.94
573482.203000,-0.151,-0.97,-0.195,10.1,-0.03,6.68
573482.250000,-0.158,-0.958,-0.202,-1.07,-3.48,9.64
573482.296000,-0.167,-1.02,-0.202,-5.65,-6.26,8.0
573482.343000,-0.119,-1.019,-0.226,-5.65,-4.7,-6.71
573482.390000,-0.122,-0.977,-0.246,-24.08,-5.22,-8.94
573482.437000,-0.136,-0.996,-0.209,-18.77,1.71,-17.4
573482.484000,-0.127,-0.982,-0.231,-3.02,2.78,-10.86
573482.531000,-0.101,-0.968,-0.255,-11.26,1.07,-8.61
573482.578000,-0.127,-0.911,-0.245,-28.02,-6.9,-10.04
573482.625000,-0.13,-0.939,-0.292,-21.55,-6.87,-7.87
573482.671000,-0.158,-0.917,-0.284,-5.28,-12.97,3.51
573482.718000,-0.131,-0.933,-0.298,-5.4,-5.01,2.17
573482.765000,-0.122,-0.939,-0.306,-7.9,-4.61,2.69
573482.812000,-0.131,-0.926,-0.268,-6.78,-7.17,4.7
573482.859000,-0.11,-0.934,-0.315,4.61,-5.8,7.29
573482.906000,-0.093,-0.947,-0.352,4.67,-4.43,6.07
573482.953000,-0.132,-0.942,-0.321,-7.69,-3.91,6.65
573483.000000,-0.124,-0.973,-0.405,-0.34,-3.02,10.32
573483.046000,-0.15,-0.961,-0.305,1.34,9.09,-0.31
573483.093000,-0.136,-0.916,-0.278,-9.61,-4.46,6.01
573483.140000,-0.138,-0.953,-0.327,-10.1,-5.07,-3.02
573483.187000,-0.145,-0.966,-0.344,-4.33,-3.27,1.4
573483.234000,-0.136,-0.958,-0.297,-7.32,-13.64,-4.09
573483.281000,-0.194,-0.917,-0.323,5.92,-14.31,3.81
573483.328000,-0.156,-0.928,-0.305,11.14,-1.4,6.26
573483.375000,-0.136,-0.903,-0.342,11.66,1.22,1.56
573483.421000,-0.166,-0.926,-0.292,5.46,4.91,2.59
573483.484000,-0.165,-0.967,-0.318,15.93,6.44,-15.14
573483.531000,-0.167,-0.93,-0.269,3.88,-5.34,-1.34
573483.578000,-0.143,-0.981,-0.318,2.35,-13.12,-12.42
573483.625000,-0.148,-0.979,-0.252,3.91,-11.38,-13.46
573483.671000,-0.12,-0.972,-0.292,9.16,-18.62,-0.15
573483.718000,-0.077,-0.911,-0.328,-8.12,2.53,-11.66
573483.765000,-0.126,-1.024,-0.265,-2.04,6.16,-1.65
573483.812000,-0.14,-0.973,-0.231,7.02,8.39,-15.53
573483.859000,-0.088,-0.924,-0.325,-3.23,-9.25,-8.42
573483.906000,-0.065,-0.99,-0.366,-6.1,-1.4,-14.74
573483.953000,-0.127,-0.916,-0.253,-20.97,-7.2,-21.61
573484.000000,-0.074,-0.904,-0.278,-7.26,-8.51,-11.2
573484.062000,-0.073,-0.936,-0.335,-10.35,-17.43,-4.39
573484.109000,-0.076,-0.945,-0.313,-32.53,-20.57,-6.68
573484.156000,-0.086,-0.911,-0.341,-18.92,-25.61,9.06
573484.203000,-0.135,-0.913,-0.385,-13.55,-6.59,14.83
573484.250000,-0.154,-0.893,-0.367,-3.14,0.52,15.44
573484.296000,-0.153,-0.93,-0.377,2.04,11.11,7.08
573484.343000,-0.131,-0.882,-0.352,-10.19,-0.21,-3.02
573484.390000,-0.112,-0.896,-0.354,3.48,-2.96,2.38
573484.453000,-0.108,-0.939,-0.415,-8.85,-11.57,3.45
573484.500000,-0.112,-0.913,-0.429,-3.91,-1.92,-1.28
573484.562000,-0.147,-0.91,-0.354,-8.58,-1.59,-3.33
573484.609000,-0.137,-0.891,-0.368,30.27,16.94,-0.89
573484.656000,-0.12,-0.979,-0.364,24.26,17.15,12.63
573484.703000,-0.132,-0.897,-0.287,-14.65,8.91,-12.05
573484.750000,-0.109,-0.931,-0.369,-6.35,1.04,-6.13
573484.796000,-0.129,-0.897,-0.368,-16.33,-5.86,-9.49
573484.843000,-0.117,-0.91,-0.381,-5.46,-6.99,3.02
573484.890000,-0.105,-0.933,-0.401,17.24,-0.21,8.24
573484.953000,-0.121,-0.879,-0.325,0.24,7.54,6.07
573485.000000,-0.114,-0.992,-0.411,-2.26,12.7,1.46
573485.046000,-0.118,-0.899,-0.332,-14.44,9.92,-9.86
573485.093000,-0.086,-0.994,-0.426,3.54,-4.79,2.87
573485.140000,-0.115,-0.906,-0.35,-24.51,-2.93,-14.53
573485.187000,-0.11,-0.907,-0.408,-0.98,-0.24,-0.82
573485.234000,-0.101,-0.903,-0.422,-5.68,0.21,-2.5
573485.281000,-0.11,-0.907,-0.393,6.87,2.08,3.11
573485.328000,-0.088,-0.896,-0.413,15.5,4.7,4.18
573485.375000,-0.114,-0.941,-0.361,5.01,0.89,4.64
573485.421000,-0.119,-0.875,-0.354,2.62,10.53,-9.31
573485.468000,-0.102,-0.966,-0.364,-8.94,-8.85,-7.93
573485.515000,-0.097,-0.938,-0.389,-8.67,-6.01,-1.1
573485.562000,-0.088,-0.942,-0.363,3.63,-15.29,-0.98
573485.609000,-0.092,-0.92,-0.406,6.44,-2.84,-4.49
573485.656000,-0.08,-0.934,-0.367,2.01,2.93,-11.26
573485.703000,-0.098,-0.886,-0.356,4.21,0.7,-1.65
573485.750000,-0.097,-0.929,-0.37,-1.01,5.13,-8.51
573485.796000,-0.091,-0.888,-0.365,1.04,-0.34,-0.7
573485.843000,-0.111,-0.926,-0.377,-11.96,2.56,-11.99
573485.890000,-0.066,-0.898,-0.354,-4.18,-2.04,-6.81
573485.937000,-0.06,-0.933,-0.387,-15.99,-2.59,-10.22
573485.984000,-0.048,-0.915,-0.413,-9.4,0.15,0.15
573486.031000,-0.041,-0.964,-0.432,-6.53,8.7,-6.62
573486.078000,-0.066,-0.918,-0.365,6.44,6.71,1.19
573486.125000,-0.055,-0.899,-0.405,-0.49,-3.75,5.01
573486.171000,-0.08,-0.86,-0.356,-8.09,-2.35,-5.98
573486.218000,-0.041,-0.89,-0.392,-3.48,-7.14,-9.22
573486.265000,-0.044,-0.957,-0.424,7.23,-12.57,-2.9
573486.328000,-0.015,-0.916,-0.426,8.3,-1.37,-4.94
573486.375000,-0.029,-0.896,-0.398,8.51,7.93,-0.79
573486.421000,-0.031,-0.887,-0.398,-5.1,3.6,3.88
573486.468000,-0.064,-0.906,-0.381,-8.91,10.93,1.8
573486.515000,-0.054,-0.911,-0.391,1.68,3.72,6.44
573486.562000,-0.0,-0.93,-0.414,15.02,-10.19,16.6
573486.609000,0.068,-1.135,-0.69,63.54,-4.24,7.26
573486.656000,0.448,-1.577,-1.709,63.05,105.23,-14.56
573486.703000,0.148,-1.455,-1.345,-39.46,264.35,-107.12
573486.750000,-0.026,-1.085,-0.872,-33.05,294.72,-126.68
573486.796000,-0.131,-1.067,-0.561,-74.47,314.71,-151.71
573486.843000,-0.05,-0.846,-0.139,-69.0,285.29,-152.53
573486.890000,0.103,-0.77,-0.012,-79.56,237.1,-140.75
573486.937000,0.226,-0.749,0.195,-83.99,153.81,-119.11
573486.984000,0.426,-0.753,0.12,-83.83,106.48,-105.84
573487.031000,0.552,-0.666,0.207,-63.88,77.67,-77.15
573487.078000,0.701,-0.423,0.085,-44.16,44.83,-44.71
573487.125000,0.764,-0.378,0.163,-39.74,43.73,-23.07
573487.171000,0.769,-0.303,0.249,-28.87,27.01,-1.95
573487.234000,0.769,-0.242,0.33,-37.84,-4.46,18.83
573487.281000,0.851,-0.535,0.18,-32.32,-40.74,31.43
573487.328000,0.913,-0.464,0.011,13.86,-35.68,0.09
573487.375000,0.929,-0.236,-0.038,-0.79,-23.13,8.06
573487.421000,0.878,-0.439,-0.023,-11.08,-29.02,17.55
573487.468000,0.832,-0.485,-0.122,-14.01,-37.48,0.76
573487.515000,0.858,-0.361,-0.161,-10.47,-22.43,-7.42
573487.562000,0.865,-0.37,-0.156,-12.79,-15.56,6.23
573487.609000,0.846,-0.494,-0.162,-14.68,-21.82,24.48
573487.656000,0.84,-0.578,-0.117,-11.69,-15.26,7.54
573487.703000,0.81,-0.516,-0.073,-15.23,-17.64,-12.48
573487.750000,0.843,-0.585,-0.149,-14.07,-21.55,-14.92
573487.796000,0.912,-0.662,-0.412,-9.46,-13.76,-11.72
573487.843000,0.934,-0.48,-0.366,5.77,16.17,-12.76
573487.890000,0.926,-0.31,-0.226,-2.69,29.39,-11.54
573487.937000,0.996,-0.422,-0.256,-4.24,32.87,-14.56
573487.984000,0.973,-0.386,-0.281,-28.87,80.29,-60.37
573488.031000,0.968,-0.366,-0.188,-2.72,95.46,-38.7
573488.078000,0.856,-0.371,-0.026,25.06,101.57,-43.37
573488.125000,0.697,-0.205,0.173,32.65,72.45,-34.24
573488.171000,0.776,-0.259,0.198,32.41,30.18,-15.81
573488.218000,0.755,-0.233,0.194,17.76,15.87,-9.31
573488.265000,0.851,-0.197,0.161,23.26,9.95,-3.94
573488.312000,0.991,-0.177,0.162,25.15,-5.34,11.23
573488.359000,1.017,-0.169,0.19,17.67,-4.39,19.04
573488.406000,0.996,-0.321,0.168,15.47,-7.35,16.39
573488.453000,0.978,-0.226,0.182,17.58,-13.67,6.78
573488.500000,0.981,-0.207,0.127,7.9,-9.4,11.44
573488.546000,0.95,-0.353,0.149,5.46,-6.01,9.7
573488.593000,0.917,-0.306,0.154,11.54,-5.77,8.06
573488.640000,0.908,-0.327,0.194,6.47,-8.09,3.6
573488.687000,0.94,-0.347,0.115,11.99,-10.25,9.43
573488.734000,0.943,-0.285,0.135,10.1,-8.64,3.51
573488.781000,0.938,-0.3,0.199,7.14,-8.85,9.52
573488.828000,0.919,-0.322,0.253,10.19,-8.85,6.53
573488.875000,0.893,-0.333,0.476,7.78,-13.28,8.58
573488.921000,0.988,-0.4,0.561,26.58,-4.67,1.74
573488.968000,1.137,-0.347,0.389,27.41,-13.61,-17.58
573489.015000,0.936,-0.206,0.473,31.37,13.67,-17.94
573489.062000,0.849,-0.292,0.212,20.08,-17.33,-3.75
573489.109000,0.745,-0.13,0.139,-25.21,-77.97,14.89
573489.156000,0.915,-0.513,-0.27,12.05,-34.61,-5.34
573489.203000,0.836,-0.223,-0.163,-16.48,-63.45,-29.11
573489.250000,0.95,-0.198,-0.282,-17.7,-39.77,-20.54
573489.296000,0.804,-0.086,-0.133,-6.96,-43.31,1.37
573489.343000,0.982,-0.437,-0.561,-35.04,-71.47,4.61
573489.390000,0.954,-0.399,-0.34,-24.14,-49.17,-5.83
573489.437000,0.846,-0.246,-0.321,-23.77,-60.18,-25.76
573489.484000,0.854,-0.143,-0.4,-28.2,-61.4,-25.03
573489.531000,0.867,-0.146,-0.578,-30.7,-54.45,-17.67
573489.578000,0.847,-0.191,-0.571,-20.81,-41.75,-5.1
573489.625000,0.855,-0.214,-0.579,-16.85,-23.22,-5.22
573489.671000,0.809,-0.22,-0.49,-3.02,-11.47,-5.46
573489.718000,0.815,-0.129,-0.466,0.7,-7.63,-10.35
573489.765000,0.83,-0.096,-0.408,4.33,-4.36,-1.86
573489.812000,0.86,-0.096,-0.429,4.0,-7.97,-7.69
573489.859000,0.885,-0.09,-0.475,-1.74,-6.23,-1.13
573489.906000,0.893,-0.177,-0.486,1.25,-2.17,-1.59
573489.968000,0.88,-0.129,-0.43,-0.58,-4.33,-5.52
573490.015000,0.855,-0.139,-0.446,-0.58,0.89,-3.51
573490.062000,0.803,-0.186,-0.384,-5.22,-6.47,-8.33
573490.109000,0.795,-0.114,-0.404,-4.58,-17.27,-20.26
573490.156000,0.877,-0.107,-0.508,-2.53,-20.23,-5.13
573490.203000,0.871,-0.142,-0.488,-2.99,-13.61,-13.7
573490.250000,0.835,-0.081,-0.493,-3.02,-10.44,-12.79
573490.296000,0.879,-0.068,-0.501,-2.72,-8.7,-10.56
573490.343000,0.875,-0.046,-0.512,-1.83,-3.81,-9.03
573490.390000,0.828,-0.078,-0.469,-1.92,-9.46,4.24
573490.437000,0.858,-0.093,-0.533,-13.46,-3.36,-15.2
573490.484000,0.878,-0.056,-0.556,-12.36,-1.62,-15.87
573490.531000,0.872,-0.026,-0.557,3.36,0.18,-8.24
573490.578000,0.835,-0.023,-0.501,3.33,2.78,0.43
573490.625000,0.829,0.003,-0.495,-2.14,1.68,-3.51
573490.671000,0.834,-0.018,-0.515,1.68,4.52,6.38
573490.734000,0.834,-0.05,-0.482,-2.04,4.7,7.29
573490.781000,0.817,-0.041,-0.464,-0.31,0.82,-2.5
573490.828000,0.844,-0.036,-0.52,0.58,-0.58,-0.18
573490.890000,0.839,-0.055,-0.502,-2.26,1.46,-0.64
573490.937000,0.829,-0.054,-0.493,0.67,-2.62,0.31
573490.984000,0.824,-0.047,-0.504,0.58,0.4,4.91
573491.031000,0.845,-0.027,-0.514,-6.13,0.89,-1.28
573491.078000,0.848,-0.042,-0.53,0.37,0.15,5.89
573491.125000,0.848,-0.041,-0.531,-0.18,0.98,-0.64
573491.171000,0.838,0.014,-0.494,2.93,2.41,3.6
573491.218000,0.844,-0.036,-0.522,-4.24,-3.45,2.62
573491.265000,0.844,-0.063,-0.502,0.15,1.19,5.19
573491.312000,0.826,-0.08,-0.502,0.82,0.46,3.57
573491.359000,0.832,-0.081,-0.524,3.17,0.92,2.62
573491.406000,0.827,-0.082,-0.482,3.78,-3.45,1.22
573491.453000,0.851,-0.068,-0.504,0.76,-4.82,-3.27
573491.500000,0.85,-0.055,-0.522,5.46,0.7,1.74
573491.546000,0.846,-0.054,-0.482,2.11,0.0,-2.2
573491.593000,0.841,-0.027,-0.516,0.89,0.89,0.34
573491.640000,0.839,-0.07,-0.487,-1.68,-1.34,1.83
573491.687000,0.83,-0.054,-0.492,-2.01,0.34,-3.42
573491.734000,0.84,-0.061,-0.499,-4.76,-2.17,-2.56
573491.781000,0.838,-0.09,-0.518,-0.7,-0.27,4.39
573491.828000,0.827,-0.099,-0.516,1.34,-0.09,1.16
573491.875000,0.821,-0.071,-0.517,1.16,-0.12,-3.63
573491.921000,0.836,-0.074,-0.516,3.78,-0.61,-0.92
573491.968000,0.83,-0.071,-0.509,3.85,3.57,-1.89
573492.015000,0.829,-0.056,-0.511,2.35,-1.56,-2.99
573492.062000,0.838,-0.073,-0.548,5.92,2.01,-2.26
573492.109000,0.841,-0.067,-0.575,8.55,4.36,1.37
573492.156000,0.825,-0.076,-0.557,11.38,10.35,2.29
573492.203000,0.807,-0.079,-0.548,13.52,6.81,1.19
573492.250000,0.824,-0.035,-0.551,16.21,3.3,4.73
573492.296000,0.812,-0.013,-0.487,6.93,3.08,8.03
573492.343000,0.802,-0.037,-0.464,-20.05,-14.98,8.55
573492.390000,0.852,-0.069,-0.517,-2.5,-1.56,2.96
573492.437000,0.854,-0.093,-0.584,1.77,3.66,8.03
573492.484000,0.853,-0.116,-0.576,11.87,12.57,22.92
573492.531000,0.815,-0.14,-0.518,8.24,17.94,22.83
573492.593000,0.806,-0.13,-0.495,15.96,22.64,25.21
573492.640000,0.816,-0.146,-0.434,-2.01,11.87,29.02
573492.687000,0.853,-0.152,-0.524,-2.72,8.61,42.27
573492.734000,0.823,-0.156,-0.426,-16.36,6.96,40.07
573492.781000,0.811,-0.25,-0.534,-2.75,-5.95,51.61
573492.828000,0.809,-0.348,-0.548,8.06,21.85,37.29
573492.875000,0.778,-0.379,-0.491,8.79,19.56,33.42
573492.921000,0.78,-0.422,-0.487,14.47,15.56,28.44
573492.968000,0.733,-0.381,-0.479,12.54,20.94,14.28
573493.015000,0.751,-0.375,-0.42,13.18,36.13,11.41
573493.062000,0.753,-0.365,-0.339,15.72,24.69,14.68
573493.109000,0.8,-0.355,-0.312,17.55,30.88,20.63
573493.156000,0.805,-0.4,-0.204,26.28,36.74,25.15
573493.203000,0.806,-0.408,-0.201,17.15,36.9,24.99
573493.250000,0.863,-0.584,-0.162,50.6,2.56,43.46
573493.296000,0.907,-0.534,-0.314,30.67,21.27,32.32
573493.343000,0.844,-0.559,-0.073,34.67,42.27,40.77
573493.406000,0.874,-0.476,-0.175,5.55,38.79,12.82
573493.453000,0.898,-0.494,-0.033,1.34,51.42,14.01
573493.500000,0.845,-0.51,-0.018,0.15,46.11,8.97
573493.546000,0.8,-0.488,0.039,-30.03,47.24,-6.9
573493.593000,0.819,-0.573,0.123,-33.94,31.04,-22.46
573493.640000,0.82,-0.573,0.015,-40.28,33.78,-19.41
573493.687000,0.845,-0.612,-0.005,-42.6,36.23,-24.51
573493.734000,0.769,-0.65,0.123,-18.34,51.82,-21.3
573493.781000,0.748,-0.524,0.178,-16.27,29.66,-36.01
573493.828000,0.826,-0.476,0.097,-7.75,6.99,-15.69
573493.875000,0.88,-0.516,0.03,-9.52,9.58,-12.39
573493.921000,0.872,-0.445,0.043,-4.79,8.91,-2.56
573493.968000,0.903,-0.432,0.039,-9.86,11.29,-1.1
573494.015000,0.875,-0.463,0.065,-10.83,11.35,1.04
573494.062000,0.873,-0.443,0.067,-8.82,3.2,2.14
573494.109000,0.855,-0.44,0.062,-18.62,-8.45,10.13
573494.156000,0.85,-0.464,0.007,-20.29,-19.41,19.23
573494.218000,0.841,-0.529,-0.016,-11.35,-11.44,11.54
573494.265000,0.843,-0.5,-0.033,-4.15,-14.47,10.86
573494.312000,0.848,-0.532,-0.052,-1.31,-10.99,8.06
573494.359000,0.871,-0.543,-0.071,1.95,-8.45,-0.18
573494.406000,0.874,-0.497,-0.051,7.2,-4.91,4.3
573494.453000,0.871,-0.486,-0.038,1.8,-3.17,2.35
573494.500000,0.848,-0.498,-0.053,0.95,4.09,7.81
573494.546000,0.83,-0.543,-0.031,0.64,-2.93,5.22
573494.593000,0.826,-0.537,-0.051,-0.24,-2.99,0.4
573494.640000,0.839,-0.508,-0.025,0.82,-0.76,-0.09
573494.687000,0.859,-0.498,-0.032,2.29,-0.92,2.96
573494.734000,0.866,-0.568,-0.01,-1.92,-1.65,-1.19
573494.781000,0.866,-0.556,-0.036,1.28,-0.55,-1.4
573494.828000,0.828,-0.523,-0.001,2.5,2.9,-2.84
573494.875000,0.825,-0.53,-0.024,6.99,-4.33,1.77
573494.921000,0.856,-0.51,-0.079,7.08,2.35,-3.42
573494.968000,0.835,-0.473,-0.039,3.42,5.43,-2.56
573495.015000,0.832,-0.475,-0.042,0.7,4.3,0.06
573495.062000,0.833,-0.487,-0.038,1.1,5.55,4.12
573495.109000,0.815,-0.511,-0.016,-4.64,2.44,2.62
573495.156000,0.83,-0.493,-0.008,-3.11,-0.64,3.2
573495.203000,0.83,-0.481,0.007,-5.98,-3.14,5.43
573495.250000,0.822,-0.543,0.013,-3.63,-7.84,12.91
573495.296000,0.828,-0.57,-0.009,-3.11,-11.6,5.65
573495.343000,0.852,-0.564,-0.011,-0.18,-13.67,3.72
573495.390000,0.86,-0.585,-0.036,2.81,-6.32,0.0
573495.437000,0.817,-0.573,-0.006,6.29,-3.45,-1.62
573495.484000,0.813,-0.549,-0.02,7.84,-5.89,-4.61
573495.546000,0.822,-0.515,-0.049,10.71,-6.9,-0.06
573495.593000,0.82,-0.543,-0.058,8.51,-6.23,1.74
573495.640000,0.814,-0.517,-0.051,8.0,-4.24,-2.53
573495.687000,0.837,-0.52,-0.073,8.58,-5.8,4.06
573495.734000,0.82,-0.513,-0.068,3.3,-3.78,0.4
573495.781000,0.819,-0.532,-0.074,5.49,-3.48,4.94
573495.828000,0.816,-0.521,-0.07,0.55,-4.7,2.08
573495.875000,0.807,-0.516,-0.054,-4.3,-2.01,4.36
573495.921000,0.823,-0.579,-0.064,-0.27,-3.17,6.07
573495.968000,0.821,-0.567,-0.059,-1.04,-2.99,3.3
573496.015000,0.833,-0.554,-0.063,0.73,-2.96,4.49
573496.062000,0.836,-0.585,-0.077,0.43,-1.62,1.53
573496.109000,0.832,-0.567,-0.073,1.4,-1.19,0.58
573496.156000,0.813,-0.567,-0.05,1.92,0.55,2.47
573496.203000,0.805,-0.593,-0.067,2.78,-0.34,0.79
573496.250000,0.8,-0.541,-0.047,1.62,-2.2,0.03
573496.296000,0.813,-0.544,-0.064,-1.01,-1.59,-0.21
573496.343000,0.818,-0.563,-0.079,-1.83,-2.75,2.75
573496.390000,0.81,-0.575,-0.075,5.1,0.12,1.4
573496.437000,0.814,-0.553,-0.069,1.22,-0.7,-1.56
573496.484000,0.814,-0.565,-0.063,2.41,-0.64,1.22
573496.531000,0.805,-0.541,-0.054,2.44,-1.13,-0.64
573496.578000,0.811,-0.567,-0.077,2.14,-0.09,4.46
573496.625000,0.803,-0.588,-0.063,-0.03,0.64,-1.37
573496.671000,0.804,-0.557,-0.046,2.41,-0.58,0.98
573496.734000,0.806,-0.561,-0.052,0.82,-2.26,1.5
573496.781000,0.811,-0.563,-0.054,2.66,-1.34,1.34
573496.828000,0.814,-0.576,-0.073,4.09,-0.09,2.11
573496.875000,0.817,-0.565,-0.055,0.98,-0.52,2.38
573496.921000,0.822,-0.563,-0.074,5.04,2.32,3.23
573496.968000,0.804,-0.542,-0.024,-3.33,3.23,-0.31
573497.015000,0.792,-0.592,-0.015,-1.74,-0.37,7.02
573497.062000,0.8,-0.62,-0.058,1.95,1.1,0.09
573497.109000,0.779,-0.581,-0.061,8.21,2.5,0.85
573497.156000,0.78,-0.556,-0.08,10.9,6.87,4.0
573497.203000,0.769,-0.531,-0.054,7.69,5.25,7.05
573497.250000,0.773,-0.564,-0.041,2.17,3.88,8.51
573497.296000,0.782,-0.568,-0.015,-0.7,-3.36,9.43
573497.343000,0.813,-0.611,-0.027,-3.97,-2.84,4.03
573497.390000,0.819,-0.618,-0.013,-5.52,-5.22,5.83
573497.437000,0.812,-0.657,-0.012,-4.97,-2.38,-0.09
573497.484000,0.816,-0.628,-0.047,-0.64,-4.0,0.43
573497.531000,0.8,-0.61,-0.051,-1.28,-0.7,-4.61
573497.578000,0.762,-0.588,-0.02,-0.55,-1.77,-3.69
573497.625000,0.763,-0.602,-0.039,-1.8,-7.81,-6.23
573497.671000,0.772,-0.613,-0.044,0.58,-11.47,-2.62
573497.718000,0.79,-0.607,-0.07,2.47,-12.57,-3.97
573497.765000,0.807,-0.595,-0.078,4.58,-8.18,-4.24
573497.812000,0.814,-0.59,-0.08,8.09,-7.72,-0.37
573497.859000,0.81,-0.557,-0.09,5.8,-5.01,-6.35
573497.906000,0.819,-0.537,-0.102,1.19,-5.01,-4.73
573497.953000,0.804,-0.586,-0.096,1.13,-0.03,-2.53
573498.000000,0.797,-0.59,-0.094,0.58,1.34,-3.63
573498.046000,0.774,-0.564,-0.063,2.04,1.25,-0.31
573498.093000,0.772,-0.581,-0.077,-0.55,-1.62,-3.78
573498.140000,0.791,-0.555,-0.078,2.11,-2.2,-0.37
573498.187000,0.798,-0.559,-0.082,0.37,-2.35,1.89
573498.234000,0.801,-0.578,-0.076,-1.62,1.68,-0.34
573498.281000,0.808,-0.588,-0.078,-2.23,1.95,-2.41
573498.328000,0.835,-0.594,-0.102,-3.94,6.87,-8.76
573498.375000,0.854,-0.636,-0.138,5.13,13.12,-10.1
573498.421000,0.862,-0.671,-0.127,5.19,49.32,-59.63
573498.468000,0.843,-0.476,-0.006,7.14,47.58,-64.67
573498.515000,0.869,-0.438,-0.004,6.87,53.5,-64.88
573498.562000,0.857,-0.319,0.122,9.83,46.14,-51.27
573498.609000,0.868,-0.281,0.137,9.49,31.28,-31.13
573498.656000,0.903,-0.281,0.115,7.08,17.21,-12.15
573498.703000,0.894,-0.361,0.138,-0.09,11.96,-5.98
573498.750000,0.917,-0.369,0.133,8.97,14.92,-9.09
573498.796000,0.91,-0.315,0.157,7.42,15.11,-7.35
573498.843000,0.897,-0.331,0.178,11.11,11.57,2.5
573498.890000,0.877,-0.322,0.185,2.26,3.11,3.63
573498.937000,0.876,-0.333,0.192,0.92,1.22,6.68
573498.984000,0.897,-0.368,0.163,0.64,-5.43,12.57
573499.031000,0.912,-0.372,0.156,0.76,-4.49,10.77
573499.078000,0.928,-0.372,0.126,0.85,-7.45,9.43
573499.125000,0.915,-0.363,0.156,1.53,-1.46,7.75
573499.171000,0.905,-0.381,0.147,-1.62,-2.99,6.2
573499.234000,0.912,-0.41,0.13,0.89,-3.27,7.9
573499.281000,0.89,-0.379,0.153,0.21,0.52,0.79
573499.328000,0.91,-0.395,0.135,1.83,-0.12,8.15
573499.375000,0.887,-0.404,0.152,-1.31,1.37,4.67
573499.421000,0.89,-0.405,0.146,-0.85,-1.62,1.71
573499.468000,0.898,-0.411,0.148,2.17,-1.1,2.08
573499.515000,0.902,-0.389,0.139,2.14,-1.1,1.62
573499.562000,0.889,-0.402,0.146,3.78,1.13,5.95
573499.609000,0.889,-0.418,0.151,-0.09,1.98,0.15
573499.656000,0.882,-0.403,0.167,0.82,-0.15,2.26
573499.703000,0.892,-0.417,0.151,-0.61,-3.78,1.1
573499.750000,0.892,-0.391,0.156,-1.65,-1.92,0.18
573499.796000,0.899,-0.449,0.126,-1.07,-2.01,5.13
573499.843000,0.879,-0.422,0.151,0.31,-1.04,-1.13
573499.890000,0.874,-0.394,0.158,-1.46,-5.65,2.62
573499.937000,0.896,-0.447,0.108,1.34,-7.2,9.31
573499.984000,0.888,-0.431,0.121,0.95,-0.03,0.37
573500.031000,0.871,-0.405,0.135,-1.89,-2.04,-0.92
573500.078000,0.891,-0.436,0.104,-0.31,-1.71,0.34
573500.125000,0.879,-0.397,0.137,-0.85,1.01,-2.41
573500.171000,0.881,-0.419,0.113,-1.28,-2.99,3.45
573500.218000,0.879,-0.411,0.128,-2.26,1.04,-1.16
573500.265000,0.881,-0.419,0.126,-1.1,1.22,1.86
573500.312000,0.888,-0.439,0.124,-1.86,0.73,-1.25
573500.359000,0.894,-0.41,0.133,0.34,1.71,1.92
573500.406000,0.905,-0.42,0.108,-0.61,-1.8,-0.09
573500.453000,0.895,-0.433,0.12,1.77,2.96,0.21
573500.515000,0.886,-0.417,0.127,0.12,-1.1,-3.23
573500.562000,0.881,-0.418,0.129,2.01,-1.62,-2.96
573500.609000,0.871,-0.429,0.166,2.59,-1.95,0.89
573500.656000,0.868,-0.406,0.141,5.74,-5.43,-2.01
573500.703000,0.897,-0.428,0.13,6.07,-6.59,-0.09
573500.750000,0.883,-0.413,0.136,7.11,-6.9,-0.82
573500.796000,0.881,-0.422,0.132,10.01,-5.86,2.81
573500.843000,0.894,-0.381,0.11,9.58,-6.93,-1.4
573500.890000,0.915,-0.412,0.083,5.8,-4.09,-0.64
573500.937000,0.916,-0.435,0.08,6.71,-1.46,-0.34
573500.984000,0.903,-0.395,0.089,8.3,-1.86,-1.19
573501.031000,0.892,-0.4,0.097,4.58,-1.34,0.09
573501.078000,0.882,-0.398,0.074,4.12,-4.76,-2.2
573501.125000,0.888,-0.387,0.083,3.78,-5.52,0.61
573501.171000,0.874,-0.421,0.121,17.61,-11.05,16.69
573501.218000,0.903,-0.459,0.06,10.47,-10.59,11.51
573501.265000,0.885,-0.428,0.101,8.3,-5.28,4.88
573501.312000,0.904,-0.446,0.094,10.68,-12.97,6.53
573501.359000,0.9,-0.419,0.049,1.59,-8.24,-4.3
573501.406000,0.893,-0.414,0.093,5.07,-4.12,7.2
573501.453000,0.88,-0.439,0.072,-0.34,-1.19,9.77
573501.500000,0.897,-0.456,0.051,2.35,1.4,9.0
573501.546000,0.877,-0.443,0.081,-4.7,4.03,-1.89
573501.593000,0.89,-0.467,0.051,-10.86,10.9,-3.94
573501.640000,0.884,-0.43,0.073,-12.36,10.19,-11.69
573501.687000,0.875,-0.426,0.106,-20.23,15.32,-7.48
573501.734000,0.878,-0.448,0.097,-14.68,10.47,-4.79
573501.781000,0.853,-0.469,0.135,-17.0,7.42,-25.3
573501.828000,0.858,-0.411,0.144,-12.15,5.22,-18.8
573501.875000,0.89,-0.394,0.099,-6.81,2.04,-13.18
573501.921000,0.898,-0.338,0.109,-7.57,3.72,-9.8
573501.968000,0.919,-0.387,0.109,-4.27,1.01,1.53
573502.015000,0.91,-0.386,0.109,-6.84,0.03,-3.69
573502.062000,0.916,-0.388,0.125,-4.73,-4.43,5.65
573502.109000,0.928,-0.397,0.083,-2.23,-7.26,-4.21
573502.156000,0.928,-0.352,0.056,1.01,-0.79,-0.76
573502.218000,0.897,-0.394,0.101,-3.39,2.59,-1.71
573502.265000,0.9,-0.392,0.088,1.4,0.89,3.08
573502.312000,0.892,-0.39,0.106,-1.19,0.49,0.95
573502.375000,0.906,-0.404,0.079,0.85,-1.92,0.55
573502.437000,0.905,-0.382,0.081,0.76,-1.65,-1.07
573502.484000,0.919,-0.408,0.081,1.65,1.56,0.89
573502.531000,0.891,-0.361,0.092,1.95,-2.9,2.11
573502.593000,0.894,-0.406,0.096,0.06,-0.46,1.13
573502.640000,0.894,-0.419,0.08,0.34,-4.15,0.37
573502.687000,0.908,-0.386,0.071,3.23,-3.57,-1.43
573502.734000,0.92,-0.373,0.075,2.32,-3.51,0.12
573502.781000,0.92,-0.418,0.071,-3.51,3.63,-0.18
573502.843000,0.901,-0.373,0.103,1.28,2.08,-2.23
573502.890000,0.894,-0.405,0.077,2.26,-1.74,-1.8
573502.937000,0.899,-0.388,0.082,2.9,-2.01,-2.66
573502.984000,0.889,-0.392,0.091,2.62,-2.53,-2.75
573503.031000,0.92,-0.396,0.055,1.86,-2.35,-0.21
573503.078000,0.918,-0.369,0.057,0.98,-1.13,-5.58
573503.125000,0.907,-0.359,0.078,2.87,-2.59,1.98
573503.171000,0.898,-0.391,0.088,1.37,-0.09,-4.76
573503.218000,0.91,-0.4,0.059,4.52,0.03,0.06
573503.265000,0.899,-0.383,0.074,0.52,-0.4,-6.07
573503.312000,0.887,-0.376,0.074,5.16,-0.82,1.28
573503.359000,0.887,-0.366,0.115,4.15,1.4,-5.55
573503.406000,0.913,-0.386,0.278,5.55,2.08,-2.87
573503.453000,1.024,-0.5,0.531,23.04,10.07,1.37
573503.500000,1.063,-0.585,0.593,47.73,14.8,-22.95
573503.546000,0.88,-0.244,0.762,77.88,34.55,-40.07
573503.593000,0.756,-0.218,0.657,73.73,25.15,-27.01
573503.640000,0.666,-0.198,0.6,56.34,-3.81,-21.97
573503.687000,0.732,-0.156,0.326,37.57,-54.9,-14.53
573503.734000,0.787,-0.238,0.063,23.29,-89.42,-9.83
573503.781000,0.9,-0.452,-0.272,9.16,-102.82,-12.85
573503.828000,1.056,-0.224,-0.61,5.65,-104.98,-5.8
573503.875000,0.953,-0.189,-0.528,-28.9,-73.4,26.73
573503.921000,0.772,-0.288,-0.424,-40.86,-69.25,39.98
573503.968000,0.803,-0.212,-0.566,-39.74,-67.84,28.63
573504.015000,0.952,-0.393,-0.671,-34.97,-57.53,20.54
573504.062000,0.955,-0.389,-0.571,3.11,-14.19,-1.95
573504.109000,0.858,-0.205,-0.42,12.57,-6.96,-10.25
573504.156000,0.879,-0.313,-0.374,7.54,0.46,2.5
573504.203000,0.873,-0.245,-0.293,4.15,4.73,-16.21
573504.250000,0.899,-0.161,-0.334,0.4,-6.47,-9.95
573504.296000,0.91,-0.274,-0.342,0.34,-1.07,2.29
573504.343000,0.885,-0.266,-0.295,-0.55,1.65,-3.72
573504.390000,0.912,-0.261,-0.322,-0.92,4.58,1.43
573504.437000,0.889,-0.279,-0.282,3.2,7.87,-1.01
573504.484000,0.892,-0.225,-0.281,4.33,0.52,-5.62
573504.531000,0.886,-0.187,-0.265,-2.26,-1.34,5.22
573504.578000,0.909,-0.266,-0.315,-1.04,-5.58,1.04
573504.625000,0.898,-0.222,-0.311,-1.31,-1.46,1.37
573504.671000,0.866,-0.231,-0.305,-1.71,0.09,6.74
573504.718000,0.891,-0.274,-0.322,-3.91,-2.38,2.87
573504.765000,0.871,-0.259,-0.31,-1.53,-1.53,0.21
573504.812000,0.872,-0.252,-0.288,-0.55,-2.2,3.69
573504.859000,0.897,-0.269,-0.305,-1.53,-5.22,0.55
573504.906000,0.911,-0.253,-0.316,-2.41,-5.46,-4.49
573504.953000,0.919,-0.254,-0.346,-1.89,-8.58,4.55
573505.000000,0.904,-0.262,-0.316,-0.82,-0.03,1.13
573505.046000,0.898,-0.257,-0.336,-2.62,-4.46,-0.12
573505.093000,0.901,-0.282,-0.357,-1.5,-0.92,-1.43
573505.140000,0.856,-0.193,-0.33,-0.89,-0.15,2.59
573505.187000,0.882,-0.298,-0.322,-1.92,-1.53,7.02
573505.234000,0.89,-0.289,-0.325,-3.2,-2.11,1.68
573505.281000,0.901,-0.297,-0.37,-1.16,-7.48,6.56
573505.328000,0.896,-0.308,-0.343,2.2,-0.37,-3.88
573505.375000,0.88,-0.22,-0.341,0.34,-3.23,-2.66
573505.421000,0.905,-0.319,-0.347,0.18,0.24,3.05
573505.484000,0.869,-0.256,-0.319,0.43,-0.7,-6.26
573505.546000,0.887,-0.282,-0.344,2.53,-0.06,-1.71
573505.593000,0.873,-0.236,-0.34,-1.98,-5.83,-9.16
573505.656000,0.904,-0.251,-0.367,2.04,2.08,1.95
573505.718000,0.867,-0.264,-0.344,-1.92,-1.1,-1.22
573505.781000,0.886,-0.243,-0.363,-0.98,-2.08,-2.47
573505.828000,0.889,-0.255,-0.363,0.21,-0.18,-0.73
573505.875000,0.875,-0.237,-0.364,1.31,0.92,-1.89
573505.921000,0.855,-0.261,-0.338,-0.21,-0.76,5.07
573505.968000,0.881,-0.282,-0.366,1.07,-0.43,-0.95
573506.015000,0.863,-0.243,-0.335,-0.31,-1.56,-1.19
573506.062000,0.902,-0.283,-0.388,0.52,-3.48,1.89
573506.109000,0.893,-0.253,-0.353,2.93,2.72,1.13
573506.156000,0.879,-0.248,-0.348,2.75,2.69,1.83
573506.203000,0.888,-0.259,-0.351,2.96,2.08,2.9
573506.265000,0.885,-0.258,-0.35,5.46,4.12,4.15
573506.312000,0.883,-0.252,-0.342,0.85,1.4,-0.98
573506.359000,0.896,-0.249,-0.356,3.36,2.96,7.87
573506.406000,0.898,-0.311,-0.367,4.39,3.05,14.53
573506.453000,0.874,-0.312,-0.318,4.73,6.93,-1.89
573506.500000,0.861,-0.243,-0.303,4.61,4.49,0.67
573506.546000,0.876,-0.304,-0.311,2.72,3.97,7.42
573506.593000,0.85,-0.263,-0.281,-0.49,1.01,-2.9
573506.656000,0.884,-0.308,-0.332,-2.87,-3.05,-2.32
573506.703000,0.885,-0.266,-0.317,-0.4,-1.07,-0.55
573506.750000,0.892,-0.265,-0.342,-2.2,-3.17,3.66
573506.796000,0.894,-0.34,-0.337,-2.72,-0.79,2.04
573506.843000,0.881,-0.273,-0.329,-0.92,0.67,-5.34
573506.890000,0.885,-0.265,-0.339,-1.5,-1.37,2.81
573506.937000,0.879,-0.304,-0.332,-1.71,1.16,1.19
573507.000000,0.863,-0.276,-0.324,-2.56,-0.89,-4.39
573507.046000,0.888,-0.297,-0.343,-0.98,-1.13,2.35
573507.093000,0.87,-0.286,-0.336,-0.89,0.92,-1.46
573507.140000,0.872,-0.275,-0.33,-0.64,-1.77,0.98
573507.187000,0.896,-0.307,-0.356,-0.12,-0.7,2.2
573507.234000,0.881,-0.294,-0.35,0.27,2.08,-2.41
573507.281000,0.875,-0.274,-0.336,1.4,1.1,3.57
573507.328000,0.882,-0.283,-0.371,-0.34,-1.25,3.81
573507.375000,0.893,-0.303,-0.383,3.88,1.68,9.16
573507.421000,0.876,-0.302,-0.364,1.34,1.25,0.43
573507.468000,0.817,-0.248,-0.383,-9.34,-19.53,20.72
573507.515000,0.859,-0.368,-0.502,-1.22,-3.45,4.39
573507.562000,0.853,-0.251,-0.498,-2.72,-10.86,-8.51
573507.609000,0.837,-0.236,-0.541,-8.0,-4.7,29.42
573507.656000,0.859,-0.402,-0.652,10.04,17.85,45.87
573507.703000,0.743,-0.38,-0.483,5.52,24.63,25.21
573507.750000,0.706,-0.375,-0.509,9.03,-1.62,34.24
573507.796000,0.749,-0.369,-0.579,14.19,38.79,20.23
573507.843000,0.785,-0.474,-0.376,3.88,14.34,36.19
573507.890000,0.815,-0.562,-0.462,14.89,30.76,15.05
573507.937000,0.664,-0.361,-0.083,1.98,49.81,-3.69
573507.984000,0.792,-0.484,-0.094,11.87,36.1,14.04
573508.031000,0.843,-0.403,-0.045,6.81,36.35,-15.78
573508.078000,0.877,-0.337,-0.07,0.73,10.65,33.45
573508.125000,0.934,-0.452,-0.032,-11.02,25.85,48.77
573508.171000,1.011,-0.514,-0.037,-29.88,21.03,25.85
573508.218000,0.934,-0.542,-0.059,-12.94,50.14,54.45
573508.265000,0.934,-0.764,-0.075,2.66,55.15,72.36
573508.312000,0.644,-0.741,0.208,-34.15,65.31,-14.83
573508.359000,0.719,-0.618,0.118,-2.84,23.9,4.73
573508.406000,0.704,-0.512,0.095,-49.87,24.05,-43.18
573508.453000,0.72,-0.526,0.055,-23.77,5.77,12.79
573508.500000,0.764,-0.624,-0.014,-31.16,6.59,-6.16
573508.546000,0.839,-0.548,-0.007,-19.87,-11.78,4.03
573508.593000,0.871,-0.522,-0.032,-16.11,-4.64,1.25
573508.640000,0.868,-0.614,-0.042,-19.14,-0.92,2.01
573508.703000,0.811,-0.668,-0.009,-2.62,-0.85,-1.77
573508.750000,0.799,-0.557,-0.083,-0.7,-14.59,-18.1
573508.796000,0.823,-0.544,-0.078,8.48,-3.91,4.61
573508.843000,0.874,-0.612,-0.204,-2.99,-3.08,-3.33
573508.890000,0.895,-0.535,-0.175,-6.1,6.62,-26.03
573508.937000,0.899,-0.516,-0.204,1.1,29.91,-23.44
573508.984000,0.807,-0.453,-0.055,-6.93,31.83,-29.21
573509.031000,0.797,-0.532,-0.099,1.5,28.29,-16.91
573509.078000,0.8,-0.553,-0.036,-4.97,43.37,-42.76
573509.125000,0.809,-0.481,-0.001,4.09,37.93,-58.87
573509.171000,0.899,-0.443,-0.048,-6.26,52.83,-63.66
573509.218000,0.919,-0.349,0.044,7.97,46.27,-55.88
573509.265000,0.861,-0.189,0.167,15.93,30.06,-33.75
573509.312000,0.893,-0.141,0.141,16.05,1.59,-26.4
573509.359000,0.934,-0.17,0.083,5.77,-10.44,-1.74
573509.406000,0.951,-0.266,0.054,-0.64,-8.76,8.55
573509.453000,0.927,-0.289,0.068,3.54,-5.46,17.3
573509.500000,0.925,-0.257,0.088,-2.14,-7.97,11.66
573509.546000,0.946,-0.307,0.045,-1.92,-6.35,16.66
573509.593000,0.959,-0.349,0.037,-0.89,-7.32,10.71
573509.640000,0.97,-0.34,0.055,2.01,-3.6,12.54
573509.687000,0.981,-0.318,0.052,0.55,0.12,8.94
573509.734000,0.978,-0.333,0.051,3.05,7.11,13.67
573509.781000,0.951,-0.346,0.058,0.06,7.72,4.55
573509.828000,0.908,-0.339,0.095,3.2,5.49,9.95
573509.875000,0.901,-0.35,0.088,3.11,0.52,11.35
573509.921000,0.894,-0.404,0.073,2.99,-1.92,8.39
573509.968000,0.92,-0.361,0.062,6.87,-7.93,8.21
573510.015000,0.934,-0.39,0.038,4.58,-4.06,9.7
573510.062000,0.932,-0.406,0.042,0.7,-3.45,3.78
573510.109000,0.917,-0.352,0.059,3.63,-3.66,4.58
573510.156000,0.925,-0.415,0.024,2.29,0.31,7.48
573510.203000,0.908,-0.381,0.041,-0.06,-3.14,-0.34
573510.250000,0.938,-0.394,0.008,2.26,0.67,-0.24
573510.296000,0.909,-0.397,0.056,0.98,2.75,0.46
573510.343000,0.899,-0.392,0.062,-0.12,0.03,-0.89
573510.390000,0.91,-0.389,0.039,-1.34,-0.64,0.24
573510.437000,0.913,-0.378,0.043,-0.85,-0.27,1.89
573510.484000,0.883,-0.388,0.076,-1.59,-0.82,3.85
573510.531000,0.909,-0.416,0.023,2.08,-0.49,5.92
573510.578000,0.888,-0.376,0.076,0.98,-1.37,-0.92
573510.625000,0.895,-0.363,0.063,-0.4,-1.13,2.41
573510.671000,0.915,-0.422,0.047,-0.58,-1.68,2.78
573510.718000,0.893,-0.381,0.058,-0.03,-1.13,0.89
573510.765000,0.913,-0.428,0.035,-1.1,-0.37,2.87
573510.828000,0.891,-0.396,0.061,1.86,1.92,1.92
573510.875000,0.877,-0.389,0.077,0.09,-0.31,-0.03
573510.921000,0.903,-0.394,0.045,-0.12,-1.1,3.51
573510.984000,0.908,-0.42,0.061,1.5,0.61,2.53
573511.031000,0.908,-0.406,0.062,0.27,-0.18,0.73
573511.078000,0.897,-0.403,0.06,1.31,-1.28,2.62
573511.125000,0.884,-0.409,0.059,1.98,-1.74,4.06
573511.171000,0.882,-0.393,0.059,-0.34,-2.32,0.21
573511.218000,0.908,-0.425,0.073,-0.06,-2.23,4.0
573511.265000,0.921,-0.431,0.04,1.83,0.18,2.99
573511.312000,0.905,-0.387,0.039,1.25,6.59,5.13
573511.359000,0.886,-0.41,0.046,-2.11,6.35,5.71
573511.406000,0.865,-0.425,0.052,-1.86,6.04,7.08
573511.453000,0.854,-0.404,0.106,-1.77,2.44,10.74
573511.500000,0.868,-0.457,0.043,-4.43,-0.46,16.33
573511.546000,0.845,-0.438,0.078,-8.85,-0.49,5.77
573511.593000,0.876,-0.461,0.059,-7.78,-12.33,11.23
573511.640000,0.921,-0.445,0.013,-10.62,-9.03,-2.84
573511.687000,0.904,-0.45,0.034,-8.36,-7.9,8.24
573511.734000,0.9,-0.545,0.03,-13.79,-6.9,-0.18
573511.781000,0.87,-0.486,0.057,-2.23,-5.16,-2.35
573511.828000,0.881,-0.49,0.023,1.34,-8.97,3.42
573511.875000,0.882,-0.499,0.03,-2.11,-5.04,-5.1
573511.921000,0.909,-0.495,-0.023,5.77,-3.88,0.85
573511.968000,0.861,-0.435,0.038,-0.7,0.85,-8.06
573512.015000,0.862,-0.47,0.016,4.94,-2.26,3.17
573512.062000,0.867,-0.473,0.019,2.17,1.53,-10.77
573512.109000,0.869,-0.435,-0.009,6.5,0.95,0.4
573512.156000,0.891,-0.456,-0.025,3.08,2.99,-2.87
573512.203000,0.859,-0.417,-0.001,2.84,5.71,-2.14
573512.250000,0.865,-0.433,0.002,-1.22,4.73,0.03
573512.296000,0.871,-0.447,-0.005,-2.14,6.56,0.4
573512.343000,0.879,-0.436,0.023,-1.68,7.45,2.35
573512.390000,0.897,-0.445,0.019,-3.39,6.1,-0.34
573512.437000,0.931,-0.462,0.018,-2.78,9.7,2.23
573512.484000,0.935,-0.457,0.011,-3.27,13.52,-5.4
573512.531000,0.936,-0.431,0.048,-5.13,18.52,-6.65
573512.578000,0.913,-0.414,0.06,-10.35,15.5,-6.59
573512.625000,0.932,-0.453,0.054,-7.26,16.75,-3.75
573512.671000,0.91,-0.435,0.083,-12.05,16.63,-9.16
573512.718000,0.88,-0.45,0.086,-10.44,10.35,-2.35
573512.765000,0.823,-0.454,0.169,-8.06,13.79,-7.32
573512.812000,0.778,-0.441,0.201,2.01,0.89,2.87
573512.859000,0.807,-0.452,0.148,12.36,-7.39,7.14
573512.906000,0.815,-0.469,0.115,10.13,-9.0,-1.71
573512.953000,0.85,-0.432,0.051,13.37,-14.68,0.92
573513.000000,0.884,-0.434,-0.001,13.58,-9.58,4.43
573513.046000,0.887,-0.408,0.004,9.77,-12.02,2.93
573513.109000,0.887,-0.436,0.005,4.36,-2.78,3.6
573513.156000,0.876,-0.433,0.033,5.52,-0.52,6.1
573513.203000,0.876,-0.447,0.04,2.99,-3.27,4.15
573513.250000,0.878,-0.449,0.069,2.99,-1.28,5.31
573513.296000,0.883,-0.437,0.076,1.77,-4.64,4.03
573513.343000,0.868,-0.453,0.093,1.1,-1.53,4.91
573513.390000,0.876,-0.477,0.056,1.83,-6.35,5.19
573513.437000,0.858,-0.458,0.087,2.62,-7.93,3.14
573513.484000,0.841,-0.487,0.077,5.86,-14.53,8.76
573513.531000,0.868,-0.475,0.044,6.62,-15.99,0.7
573513.578000,0.873,-0.486,0.033,10.83,-18.52,9.0
573513.625000,0.85,-0.485,0.027,11.78,-18.92,6.1
573513.671000,0.853,-0.514,0.028,12.09,-18.65,10.1
573513.718000,0.842,-0.492,0.034,15.72,-19.81,13.82
573513.765000,0.91,-0.514,-0.051,10.28,-21.82,3.78
573513.812000,0.934,-0.468,-0.061,9.34,-12.02,4.03
573513.859000,0.914,-0.495,-0.047,5.31,-6.99,2.14
573513.906000,0.875,-0.501,0.003,7.42,-6.84,2.87
573513.953000,0.87,-0.545,-0.02,6.07,-5.77,-4.15
573514.000000,0.84,-0.449,0.007,8.45,-10.71,-5.43
573514.046000,0.843,-0.476,-0.031,10.86,-12.3,2.69
573514.093000,0.834,-0.507,-0.058,11.11,-7.42,0.73
573514.140000,0.81,-0.433,-0.024,13.46,-7.39,7.11
573514.187000,0.83,-0.498,-0.042,5.52,-10.04,4.76
573514.234000,0.878,-0.555,-0.091,3.72,-16.42,3.88
573514.281000,0.928,-0.506,-0.14,7.26,-4.7,-4.12
573514.328000,0.902,-0.483,-0.072,2.78,3.23,1.86
573514.375000,0.892,-0.505,-0.104,3.11,9.28,-2.5
573514.421000,0.838,-0.456,-0.003,-6.01,21.15,1.8
573514.468000,0.809,-0.542,0.037,-7.42,7.08,7.72
573514.515000,0.804,-0.52,0.011,-5.13,1.68,-2.01
573514.562000,0.825,-0.505,0.001,-4.0,0.21,7.72
573514.609000,0.834,-0.532,0.022,3.72,1.04,7.23
573514.656000,0.841,-0.506,0.014,4.55,-0.89,1.01
573514.703000,0.86,-0.547,0.005,4.12,-3.17,8.0
573514.750000,0.88,-0.564,-0.016,7.05,-1.43,-2.26
573514.796000,0.884,-0.502,-0.034,5.65,4.85,-1.22
573514.843000,0.866,-0.487,-0.012,2.08,9.0,-0.31
573514.890000,0.86,-0.516,-0.006,-0.03,8.51,0.76
573514.937000,0.881,-0.522,-0.042,-0.4,18.22,-7.45
573514.984000,0.867,-0.485,0.003,-3.81,20.72,-9.31
573515.031000,0.832,-0.522,0.028,-4.76,27.38,-10.22
573515.078000,0.764,-0.522,0.112,-5.31,18.86,-12.15
573515.125000,0.771,-0.49,0.084,-8.15,8.73,-16.97
573515.171000,0.798,-0.445,0.101,-8.94,-0.12,-20.2
573515.218000,0.857,-0.457,0.026,-12.85,1.77,-20.36
573515.265000,0.87,-0.438,0.062,-18.13,11.47,-23.74
573515.312000,0.861,-0.438,0.099,-14.68,7.17,-8.58
573515.359000,0.852,-0.445,0.082,-19.41,21.12,-16.24
573515.406000,0.867,-0.544,0.072,7.14,64.67,10.28
573515.453000,0.911,-0.493,0.21,1.28,20.17,1.34
573515.500000,0.959,-0.288,0.172,-7.9,6.9,-30.85
573515.546000,1.037,-0.358,0.101,-5.65,-4.36,13.18
573515.593000,0.945,-0.392,0.136,-6.9,0.09,7.14
573515.640000,0.84,-0.389,0.149,-3.57,-10.28,0.46
573515.687000,0.84,-0.399,0.14,-4.82,-14.31,0.24
573515.734000,0.865,-0.472,0.095,-6.16,-25.21,-2.5
573515.781000,0.931,-0.434,-0.011,14.47,-2.75,14.59
573515.828000,0.879,-0.426,0.056,8.48,0.21,15.17
573515.875000,0.878,-0.45,0.043,4.85,-4.73,6.13
573515.921000,0.917,-0.462,0.021,4.88,-5.31,5.4
573515.968000,0.944,-0.466,0.005,3.88,-6.5,4.61
573516.015000,0.927,-0.413,0.041,1.74,4.43,-1.92
573516.062000,0.915,-0.45,0.029,1.01,10.77,-1.43
573516.109000,0.89,-0.452,0.08,-4.85,11.72,-10.71
573516.156000,0.861,-0.406,0.111,-2.26,7.75,-6.38
573516.203000,0.898,-0.442,0.089,-5.28,6.16,-12.85
573516.250000,0.894,-0.35,0.12,-2.17,-6.04,-11.44
573516.296000,0.947,-0.369,0.028,-19.9,-5.25,-37.39
573516.343000,0.924,-0.335,0.075,-21.3,0.06,-37.54
573516.390000,0.904,-0.35,0.119,-20.2,-4.52,-29.18
573516.437000,0.907,-0.372,0.087,-7.08,-1.74,-23.16
573516.484000,0.919,-0.332,0.08,-3.97,1.28,-20.36
573516.531000,0.952,-0.327,0.0,-0.18,5.37,-4.18
573516.578000,0.89,-0.323,0.036,3.66,18.07,-2.69
573516.625000,0.818,-0.295,0.12,6.2,11.81,9.46
573516.671000,0.857,-0.364,0.142,11.44,-0.52,6.2
573516.734000,0.937,-0.332,0.078,14.34,-9.55,3.51
573516.796000,0.975,-0.316,0.066,14.68,-4.85,4.94
573516.843000,0.955,-0.291,0.062,11.9,-1.83,5.62
573516.890000,0.955,-0.32,0.075,9.43,-1.83,1.04
573516.937000,0.958,-0.336,0.034,10.86,-2.44,2.75
573516.984000,0.919,-0.295,0.074,9.8,-1.1,0.09
573517.031000,0.942,-0.3,0.059,6.16,-2.84,0.12
573517.078000,0.938,-0.293,0.082,5.52,-2.87,-1.19
573517.125000,0.931,-0.297,0.09,1.1,0.24,-3.6
573517.171000,0.933,-0.315,0.07,1.53,-3.81,-1.46
573517.218000,0.95,-0.354,0.045,2.17,-2.23,-1.56
573517.265000,0.943,-0.319,0.073,5.43,-0.15,-3.57
573517.312000,0.938,-0.316,0.078,4.85,-0.24,-3.94
573517.375000,0.936,-0.304,0.053,5.68,-2.62,-1.01
573517.437000,0.943,-0.34,0.041,4.91,-2.5,-4.55
573517.484000,0.921,-0.305,0.063,10.22,0.95,-0.03
573517.531000,0.908,-0.312,0.053,7.02,-2.35,3.48
573517.578000,0.939,-0.302,0.041,4.94,-1.74,-0.49
573517.625000,0.949,-0.288,0.041,5.52,0.18,3.08
573517.671000,0.941,-0.278,0.044,1.53,-0.06,0.12
573517.718000,0.932,-0.309,0.047,-0.46,2.93,1.53
573517.765000,0.926,-0.293,0.079,-3.27,-0.12,-0.82
573517.812000,0.922,-0.312,0.071,-0.09,-1.59,4.85
573517.859000,0.922,-0.308,0.064,-0.46,-0.7,-0.24
573517.906000,0.924,-0.324,0.056,0.0,-1.86,5.89
573517.953000,0.921,-0.312,0.084,0.12,-2.47,1.34
573518.000000,0.931,-0.289,0.067,2.17,-3.69,6.65
573518.046000,0.96,-0.33,0.041,-3.23,-3.72,4.94
573518.093000,0.948,-0.324,0.067,-0.61,1.59,0.85
573518.140000,0.959,-0.338,0.06,-3.72,2.11,0.61
573518.187000,0.952,-0.342,0.035,-1.37,4.85,-2.11
573518.234000,0.942,-0.33,0.046,-3.69,8.15,-5.71
573518.281000,0.92,-0.322,0.049,-4.85,8.73,-5.37
573518.328000,0.911,-0.323,0.065,-5.77,9.77,-4.88
573518.375000,0.909,-0.314,0.074,-5.77,9.19,-3.88
573518.421000,0.899,-0.312,0.092,-2.14,5.71,-1.34
573518.468000,0.921,-0.31,0.072,-3.81,3.11,-3.81
573518.515000,0.908,-0.294,0.115,-1.31,4.91,1.25
573518.562000,0.917,-0.319,0.104,-3.27,1.5,3.69
573518.609000,0.897,-0.285,0.15,-0.49,0.4,8.3
573518.656000,0.92,-0.321,0.117,-4.15,-5.28,5.46
573518.703000,0.964,-0.334,0.086,-1.28,-3.23,4.36
573518.765000,0.952,-0.324,0.098,-2.26,-2.32,4.0
573518.812000,0.938,-0.338,0.092,-0.18,1.74,0.24
573518.859000,0.91,-0.298,0.115,0.43,1.74,0.52
573518.906000,0.924,-0.362,0.078,-0.64,-2.17,1.19
573518.953000,0.929,-0.341,0.075,0.92,-0.03,-1.5
573519.000000,0.924,-0.316,0.095,-0.76,-1.59,0.67
573519.062000,0.937,-0.332,0.082,-0.64,-0.21,-0.7
573519.109000,0.928,-0.319,0.074,-1.16,-1.37,0.4
573519.156000,0.923,-0.354,0.084,0.34,-1.43,2.23
573519.203000,0.917,-0.336,0.094,1.25,-0.18,-0.43
573519.250000,0.897,-0.361,0.25,1.8,2.23,-0.06
573519.296000,0.955,-0.542,0.35,5.49,-1.83,-5.83
573519.343000,1.017,-0.428,0.498,36.93,22.83,-20.33
573519.390000,0.816,-0.195,0.688,49.1,28.17,-16.57
573519.437000,0.89,-0.251,0.424,46.36,0.43,-25.45
573519.484000,0.858,-0.104,0.472,43.09,10.13,-40.89
573519.531000,0.829,-0.104,0.443,21.49,-11.99,-53.1
573519.578000,0.861,-0.136,0.287,9.13,-37.14,-25.15
573519.625000,0.93,-0.181,0.17,0.55,-57.99,-18.65
573519.671000,0.905,-0.114,-0.047,-18.28,-77.33,3.3
573519.718000,0.969,-0.304,-0.412,-19.84,-81.48,20.66
573519.765000,0.867,-0.224,-0.352,-25.79,-74.86,23.04
573519.812000,0.79,-0.216,-0.426,-26.03,-77.64,14.07
573519.859000,0.8,-0.147,-0.585,-24.17,-71.78,15.78
573519.906000,0.95,-0.287,-0.671,-18.31,-56.7,8.79
573519.953000,0.913,-0.195,-0.594,-10.77,-36.93,-5.95
573520.000000,0.891,-0.165,-0.548,-4.33,-27.44,7.17
573520.046000,0.881,-0.219,-0.431,0.24,-18.83,-2.78
573520.093000,0.915,-0.132,-0.434,1.34,-14.86,-2.62
573520.140000,0.874,-0.19,-0.385,1.04,-10.28,0.7
573520.187000,0.896,-0.166,-0.424,0.4,-17.4,-10.71
573520.234000,0.858,-0.17,-0.366,-0.98,-12.05,-3.88
573520.281000,0.868,-0.167,-0.398,-5.89,-19.75,-14.5
573520.328000,0.923,-0.139,-0.487,-1.95,-11.84,0.37
573520.375000,0.811,-0.201,-0.383,1.13,-9.19,3.85
573520.421000,0.841,-0.16,-0.406,-6.2,-16.05,-7.93
573520.468000,0.908,-0.233,-0.51,-0.73,-10.5,4.12
573520.515000,0.871,-0.154,-0.43,2.66,-4.3,-6.07
573520.562000,0.866,-0.134,-0.432,-0.95,-10.19,0.43
573520.609000,0.863,-0.162,-0.442,-3.81,-7.26,-1.34
573520.656000,0.892,-0.213,-0.473,0.61,-1.43,4.64
573520.703000,0.854,-0.172,-0.409,1.56,5.25,-1.04
573520.750000,0.866,-0.171,-0.426,-0.58,-0.92,0.64
573520.796000,0.885,-0.195,-0.436,0.61,0.58,1.13
573520.843000,0.853,-0.151,-0.445,0.24,0.92,0.06
573520.890000,0.842,-0.188,-0.413,-0.4,-0.4,3.66
573520.937000,0.843,-0.2,-0.438,-1.83,1.1,-8.67
573520.984000,0.854,-0.141,-0.447,0.09,-0.49,-0.76
573521.031000,0.845,-0.183,-0.441,-3.97,-4.0,-1.37
573521.093000,0.855,-0.183,-0.457,0.95,-0.7,-0.24
573521.140000,0.846,-0.168,-0.445,2.44,-1.86,2.2
573521.187000,0.858,-0.175,-0.477,0.7,-4.64,-3.88
573521.234000,0.869,-0.155,-0.465,1.56,-1.98,-2.17
573521.281000,0.862,-0.16,-0.454,0.27,-1.86,0.34
573521.328000,0.875,-0.21,-0.477,1.5,0.03,-0.73
573521.375000,0.836,-0.142,-0.451,4.46,3.14,-2.01
573521.421000,0.836,-0.144,-0.429,0.64,-1.1,1.53
573521.468000,0.847,-0.142,-0.464,-0.15,-1.01,0.03
573521.515000,0.842,-0.182,-0.447,0.79,-1.25,3.57
573521.562000,0.835,-0.166,-0.458,-0.21,-3.23,-1.34
573521.609000,0.851,-0.169,-0.473,-1.37,-3.94,0.46
573521.656000,0.853,-0.191,-0.478,-1.04,-2.75,-0.12
573521.703000,0.842,-0.162,-0.488,-0.43,-4.3,3.11
573521.750000,0.862,-0.204,-0.521,-0.31,-4.76,1.83
573521.796000,0.841,-0.177,-0.48,4.64,-2.14,2.78
573521.843000,0.839,-0.158,-0.5,0.49,-0.82,0.21
573521.890000,0.853,-0.166,-0.496,1.65,-4.7,2.5
573521.937000,0.841,-0.184,-0.496,0.12,0.43,-1.92
573521.984000,0.852,-0.175,-0.471,3.57,-1.04,7.87
573522.031000,0.821,-0.189,-0.452,-1.77,-0.7,-5.04
573522.078000,0.837,-0.172,-0.487,4.61,-1.1,4.3
573522.125000,0.807,-0.163,-0.434,-0.46,3.17,-4.64
573522.171000,0.814,-0.177,-0.448,4.06,-3.6,7.9
573522.218000,0.836,-0.212,-0.467,-1.65,1.95,-4.21
573522.265000,0.824,-0.167,-0.456,0.0,-0.4,-2.66
573522.312000,0.85,-0.207,-0.486,-3.14,-0.73,-6.78
573522.359000,0.857,-0.216,-0.508,6.2,3.75,-1.5
573522.406000,0.847,-0.176,-0.517,8.51,7.05,1.25
573522.453000,0.845,-0.17,-0.516,8.12,8.7,5.68
573522.500000,0.863,-0.193,-0.564,7.97,12.97,1.74
573522.546000,0.826,-0.149,-0.527,10.28,17.12,5.86
573522.593000,0.841,-0.186,-0.472,-2.53,-4.7,9.58
573522.640000,0.899,-0.33,-0.783,15.53,6.32,3.23
573522.687000,0.889,-0.237,-0.459,17.46,31.95,-17.91
573522.734000,0.798,-0.089,-0.46,6.38,-6.47,0.03
573522.781000,0.871,-0.197,-0.595,11.87,19.07,26.12
573522.828000,0.707,-0.094,-0.562,-16.08,18.74,13.18
573522.875000,0.736,-0.241,-0.626,-15.17,-14.5,36.87
573522.921000,0.725,-0.212,-0.615,0.95,45.9,9.8
573522.968000,0.681,-0.21,-0.365,-18.68,56.34,20.48
573523.015000,0.747,-0.236,-0.374,0.76,61.43,9.0
573523.062000,0.693,-0.146,-0.191,-27.83,105.41,8.82
573523.109000,0.763,-0.267,0.012,8.3,96.68,42.7
573523.156000,0.81,-0.304,-0.006,-22.86,105.56,6.78
573523.203000,0.806,-0.462,0.263,-16.57,98.97,45.23
573523.250000,0.744,-0.713,0.511,-16.54,89.75,35.92
573523.296000,0.842,-0.592,0.48,6.84,44.89,-2.84
573523.343000,0.939,-0.212,0.338,-21.33,2.56,-9.58
573523.390000,1.056,-0.403,0.116,-35.89,6.41,2.32
573523.437000,1.025,-0.393,0.141,-42.54,14.19,-27.86
573523.484000,0.957,-0.372,0.19,-36.93,-14.28,-12.27
573523.531000,0.96,-0.438,0.125,-24.41,-13.76,-3.57
573523.578000,0.959,-0.361,0.113,-13.79,-24.05,-12.82
573523.625000,1.006,-0.306,0.03,-6.01,-14.65,-5.8
573523.671000,0.969,-0.427,0.039,4.09,-4.82,12.12
573523.718000,0.945,-0.393,0.009,7.48,-1.98,3.51
573523.765000,0.914,-0.331,0.022,4.39,-3.23,4.55
573523.812000,0.903,-0.345,-0.01,5.83,-7.84,6.65
573523.859000,0.922,-0.394,-0.059,11.2,-9.19,10.13
573523.906000,0.906,-0.376,0.0,12.67,-7.81,3.81
573523.953000,0.913,-0.308,-0.01,7.78,-13.18,6.04
573524.015000,0.939,-0.411,-0.047,4.82,-12.82,2.66
573524.062000,0.925,-0.372,-0.026,8.61,-10.56,3.57
573524.109000,0.903,-0.387,-0.004,10.9,-4.21,-4.3
573524.156000,0.895,-0.301,-0.047,9.0,-7.75,1.8
573524.218000,0.88,-0.336,-0.028,4.46,-11.41,-1.59
573524.265000,0.916,-0.454,-0.062,7.84,-31.04,-11.6
573524.312000,0.976,-0.24,-0.183,8.09,-46.36,-46.14
573524.359000,1.013,-0.181,-0.198,-5.13,-39.0,-34.88
573524.406000,0.998,-0.312,-0.152,-17.18,-27.13,-31.01
573524.453000,0.905,-0.316,-0.133,-8.0,-8.73,-16.72
573524.500000,0.851,-0.298,-0.114,-2.87,-2.14,-7.87
573524.546000,0.864,-0.278,-0.118,-2.38,1.83,-3.57
573524.593000,0.879,-0.28,-0.125,4.46,7.35,16.3
573524.640000,0.951,-0.241,-0.15,-1.5,10.62,9.03
573524.687000,0.964,-0.263,-0.139,-0.15,12.88,18.52
573524.734000,0.971,-0.297,-0.113,-2.32,15.5,17.85
573524.781000,0.954,-0.271,-0.1,-0.67,14.71,13.25
573524.828000,0.925,-0.274,-0.065,1.46,12.02,15.56
573524.875000,0.943,-0.317,-0.069,-0.82,5.98,5.62
573524.921000,0.953,-0.34,-0.1,5.34,4.94,10.13
573524.968000,0.965,-0.346,-0.117,2.96,3.51,-4.97
573525.015000,0.934,-0.312,-0.082,3.63,6.71,-0.79
573525.062000,0.919,-0.322,-0.082,3.23,4.73,-1.92
573525.109000,0.922,-0.34,-0.081,3.51,6.04,-1.68
573525.156000,0.905,-0.327,-0.068,3.94,2.81,-2.35
573525.203000,0.934,-0.287,-0.098,3.11,3.69,-1.46
573525.250000,0.938,-0.315,-0.081,-0.55,4.06,3.54
573525.296000,0.916,-0.335,-0.061,2.01,4.21,2.66
573525.343000,0.932,-0.334,-0.039,1.89,1.8,-0.09
573525.390000,0.93,-0.298,-0.051,4.18,2.84,2.08
573525.437000,0.937,-0.336,-0.067,5.13,-1.77,5.58
573525.484000,0.929,-0.354,-0.088,2.29,-2.38,0.03
573525.531000,0.92,-0.327,-0.052,4.76,1.71,2.47
573525.578000,0.917,-0.351,-0.058,1.86,0.64,1.59
573525.625000,0.938,-0.329,-0.083,2.84,-2.44,1.28
573525.671000,0.921,-0.327,-0.034,0.37,3.2,-1.16
573525.718000,0.926,-0.352,-0.075,2.78,-2.62,0.03
573525.765000,0.934,-0.33,-0.075,2.17,2.32,-6.01
573525.812000,0.919,-0.349,-0.06,1.59,-0.64,2.23
573525.859000,0.913,-0.319,-0.055,2.11,-1.07,-1.19
573525.906000,0.929,-0.319,-0.049,1.34,1.37,1.43
573525.953000,0.923,-0.342,-0.045,1.8,0.06,0.4
573526.000000,0.913,-0.345,-0.064,1.89,-1.46,0.46
573526.046000,0.936,-0.33,-0.071,1.83,-0.79,-2.66
573526.093000,0.917,-0.331,-0.048,0.92,0.43,1.25
573526.140000,0.921,-0.35,-0.052,1.86,-2.47,0.64
573526.187000,0.913,-0.322,-0.013,3.85,-2.32,0.49
573526.234000,0.956,-0.37,-0.066,4.73,-2.87,-2.01
573526.281000,0.931,-0.319,-0.045,8.3,0.7,-1.01
573526.328000,0.943,-0.312,-0.059,3.88,0.92,-4.24
573526.375000,0.906,-0.327,-0.008,3.81,4.3,-1.89
573526.421000,0.893,-0.349,0.03,6.16,0.7,-0.95
573526.468000,0.902,-0.388,0.256,12.09,1.19,11.78
573526.515000,1.002,-0.539,0.321,26.31,6.29,22.03
573526.562000,1.092,-0.449,0.45,55.79,22.92,-7.69
573526.609000,0.953,-0.332,0.506,75.41,38.03,-18.49
573526.656000,0.983,-0.358,0.291,71.66,26.92,-37.45
573526.703000,0.77,-0.134,0.415,57.74,10.25,-34.36
573526.750000,0.787,-0.186,0.263,35.22,-20.14,-23.22
573526.796000,0.885,-0.219,0.099,16.08,-35.58,-13.7
573526.843000,0.841,-0.217,-0.066,-7.66,-57.04,-7.02
573526.890000,1.021,-0.413,-0.4,-13.49,-66.38,-0.06
573526.937000,0.992,-0.065,-0.31,-23.5,-52.77,-20.75
573526.984000,0.884,-0.134,-0.22,-36.77,-51.73,1.98
573527.046000,0.762,-0.111,-0.369,-50.78,-79.9,7.97
573527.093000,0.739,-0.209,-0.593,-64.46,-93.66,8.36
573527.140000,0.815,-0.247,-0.763,-54.66,-87.59,6.2
573527.187000,0.917,-0.263,-0.782,-43.49,-62.26,-4.12
573527.234000,0.917,-0.229,-0.66,-25.97,-28.75,-10.07
573527.281000,0.828,-0.08,-0.551,-5.98,-4.39,-6.04
573527.328000,0.829,-0.196,-0.493,-2.72,-7.29,-7.66
573527.375000,0.857,-0.098,-0.506,-1.74,-5.98,-17.61
573527.437000,0.853,-0.216,-0.448,3.36,2.62,-4.21
573527.484000,0.864,-0.071,-0.46,3.6,-0.58,-15.44
573527.531000,0.845,-0.118,-0.434,5.52,3.54,6.96
573527.578000,0.827,-0.133,-0.383,1.98,-1.83,-4.15
573527.625000,0.87,-0.087,-0.443,1.46,-5.22,3.39
573527.671000,0.878,-0.182,-0.454,2.75,-2.2,10.01
573527.718000,0.859,-0.12,-0.425,0.92,-4.52,-9.25
573527.765000,0.85,-0.102,-0.448,2.99,-3.3,2.9
573527.812000,0.843,-0.131,-0.432,3.02,-3.27,4.91
573527.859000,0.827,-0.087,-0.454,1.8,-2.26,3.97
573527.906000,0.837,-0.174,-0.455,0.27,-4.43,7.97
573527.953000,0.86,-0.146,-0.476,2.69,-5.22,-2.01
573528.015000,0.884,-0.184,-0.508,2.59,-6.32,4.21
573528.062000,0.865,-0.12,-0.481,5.74,1.37,-7.9
573528.125000,0.872,-0.12,-0.507,2.01,-2.78,-0.18
573528.171000,0.847,-0.165,-0.47,1.25,-3.85,-6.62
573528.218000,0.844,-0.093,-0.521,2.26,-4.52,0.31
573528.265000,0.851,-0.169,-0.515,4.24,-3.14,2.2
573528.312000,0.852,-0.152,-0.505,5.89,2.2,-0.73
573528.359000,0.813,-0.089,-0.455,4.73,2.23,-1.28
573528.406000,0.86,-0.128,-0.503,0.58,-5.52,-1.74
573528.453000,0.853,-0.154,-0.484,2.69,1.83,-1.01
573528.500000,0.806,-0.139,-0.45,-3.69,-7.97,-9.0
573528.546000,0.852,-0.188,-0.502,2.32,-3.48,1.01
573528.593000,0.817,-0.117,-0.483,4.76,-1.07,-10.5
573528.640000,0.805,-0.089,-0.454,7.32,-0.89,2.41
573528.687000,0.823,-0.07,-0.464,1.16,-1.68,-4.64
573528.734000,0.811,-0.083,-0.461,-2.04,-7.48,-6.44
573528.781000,0.864,-0.112,-0.493,-5.04,-11.72,-6.99
573528.828000,0.876,-0.139,-0.503,1.01,-6.32,4.49
573528.875000,0.853,-0.183,-0.502,-3.17,-3.27,-6.44
573528.921000,0.828,-0.154,-0.509,3.08,-3.17,-0.37
573528.968000,0.864,-0.161,-0.528,4.15,2.08,-6.26
573529.015000,0.859,-0.113,-0.525,5.4,2.62,-5.89
573529.062000,0.835,-0.041,-0.511,6.01,8.97,2.66
573529.109000,0.826,-0.049,-0.485,0.73,3.91,1.77
573529.156000,0.834,-0.095,-0.561,3.11,5.43,13.4
573529.203000,0.816,-0.131,-0.5,0.76,5.77,2.87
573529.250000,0.802,-0.086,-0.573,5.49,5.86,11.23
573529.296000,0.788,-0.139,-0.567,4.49,5.98,25.15
573529.343000,0.854,-0.322,-0.739,32.5,29.08,19.84
573529.390000,0.77,-0.16,-0.668,23.96,32.07,-13.21
573529.437000,0.76,-0.195,-0.808,19.71,-11.78,45.72
573529.484000,0.789,-0.229,-0.968,29.88,79.44,-13.18
573529.531000,0.602,-0.026,-0.757,1.59,55.12,9.34
573529.578000,0.698,-0.246,-0.615,30.24,54.54,34.55
573529.625000,0.715,-0.169,-0.33,-21.12,110.87,-7.17
573529.671000,0.744,-0.232,0.025,-1.19,95.86,26.28
573529.718000,0.859,-0.326,0.001,26.73,127.48,4.91
573529.765000,0.67,-0.042,0.395,-7.05,118.17,-16.05
573529.812000,0.749,-0.213,0.45,-63.02,40.53,21.61
573529.859000,0.796,-0.424,0.483,-81.61,32.32,24.38
573529.921000,1.109,-0.54,0.242,-68.48,4.21,9.86
573529.968000,1.147,-0.545,0.25,-42.91,36.93,16.88
573530.015000,0.97,-0.464,0.305,-28.66,32.2,12.15
573530.062000,0.889,-0.454,0.258,-17.09,9.55,6.5
573530.109000,0.923,-0.418,0.175,-2.11,1.65,-7.29
573530.156000,0.877,-0.368,0.15,4.49,-4.18,0.73
573530.203000,0.888,-0.364,0.088,3.14,-4.61,1.31
573530.250000,0.887,-0.369,0.122,7.32,-6.65,11.29
573530.296000,0.906,-0.352,0.073,3.2,-14.47,2.53
573530.343000,0.955,-0.382,0.024,10.32,-6.41,11.44
573530.390000,0.934,-0.37,0.025,5.68,-5.28,7.9
573530.437000,0.92,-0.367,0.053,5.71,-4.12,4.61
573530.484000,0.91,-0.386,0.061,4.43,0.21,-1.34
573530.531000,0.899,-0.379,0.073,5.07,-5.1,3.75
573530.578000,0.917,-0.407,0.041,4.67,-4.3,-0.4
573530.625000,0.924,-0.382,0.029,7.54,-1.8,1.65
573530.687000,0.889,-0.391,0.052,4.88,-6.71,4.39
573530.734000,0.872,-0.389,0.057,8.45,-6.13,5.1
573530.796000,0.894,-0.399,0.026,7.05,-11.41,3.39
573530.843000,0.904,-0.392,0.016,4.39,-7.23,1.4
573530.890000,0.914,-0.376,0.008,3.2,-5.43,1.37
573530.937000,0.924,-0.413,-0.003,1.74,-5.55,1.22
573530.984000,0.945,-0.422,-0.022,1.4,1.53,-2.75
573531.031000,0.924,-0.404,0.003,-5.22,5.04,-8.42
573531.078000,0.922,-0.393,0.001,-7.11,10.07,-15.08
573531.125000,0.888,-0.357,0.04,-15.53,11.63,-14.8
573531.171000,0.912,-0.41,0.048,-15.66,11.05,-16.11
573531.218000,0.897,-0.335,0.086,-9.13,8.0,-16.33
573531.265000,0.888,-0.362,0.118,-6.01,-5.8,-8.55
573531.312000,0.862,-0.307,0.092,-10.5,-7.48,-25.82
573531.359000,0.931,-0.273,0.024,-4.97,-23.62,-15.2
573531.406000,1.024,-0.354,-0.06,6.41,-4.73,1.19
573531.453000,0.946,-0.228,0.009,5.52,5.49,-4.79
573531.500000,0.926,-0.289,0.009,3.81,3.08,0.61
573531.546000,0.932,-0.319,0.006,4.43,2.78,4.33
573531.593000,0.919,-0.312,0.034,3.23,1.25,0.15
573531.640000,0.917,-0.285,0.041,4.7,1.53,4.39
573531.687000,0.962,-0.33,-0.005,1.25,-1.34,3.69
573531.734000,0.952,-0.32,-0.006,5.28,-0.64,7.78
573531.781000,0.925,-0.299,0.011,0.7,-2.69,0.31
573531.843000,0.951,-0.352,0.009,1.22,3.02,0.64
573531.890000,0.932,-0.348,0.031,3.45,2.81,1.4
573531.937000,0.915,-0.312,0.032,3.51,2.32,-0.46
573531.984000,0.919,-0.328,0.047,4.27,1.59,0.82
573532.031000,0.938,-0.303,0.017,4.09,-0.95,-1.8
573532.078000,0.928,-0.305,0.042,1.31,1.13,-1.65
573532.125000,0.911,-0.327,0.074,1.53,-0.03,1.28
573532.171000,0.915,-0.342,0.078,7.14,-4.24,-0.92
573532.218000,0.917,-0.302,0.101,5.98,-3.66,0.73
573532.265000,0.92,-0.342,0.155,10.07,-1.22,3.85
573532.312000,0.982,-0.383,0.198,19.1,-3.42,-3.39
573532.359000,1.064,-0.368,0.312,26.31,8.64,-7.78
573532.406000,1.11,-0.45,0.444,42.88,16.39,-17.58
573532.453000,0.819,-0.15,0.587,54.75,38.64,-39.92
573532.500000,0.874,-0.226,0.449,52.1,18.52,-28.93
573532.546000,0.781,-0.145,0.471,51.91,18.04,-29.27
573532.593000,0.991,-0.385,0.084,36.62,-23.83,-2.38
573532.640000,0.887,-0.3,0.16,29.73,-13.43,-15.84
573532.687000,0.791,-0.159,0.011,15.47,-50.51,-2.62
573532.734000,0.825,-0.193,-0.099,0.58,-70.35,0.82
573532.781000,0.854,-0.176,-0.31,-3.51,-90.7,-4.94
573532.828000,0.934,-0.24,-0.37,-15.99,-86.43,-16.08
573532.875000,0.959,-0.162,-0.383,-19.75,-80.2,-6.01
573532.921000,0.912,-0.182,-0.43,-23.01,-72.27,-8.3
573532.968000,0.876,-0.067,-0.45,-22.8,-70.1,-2.01
573533.015000,0.853,-0.089,-0.502,-37.93,-70.01,4.18
573533.062000,0.902,-0.151,-0.643,-30.34,-63.78,-3.27
573533.109000,0.932,-0.167,-0.601,-18.1,-32.04,5.83
573533.156000,0.876,-0.144,-0.566,-10.68,-22.34,-0.67
573533.203000,0.841,-0.073,-0.494,2.08,-6.74,1.92
573533.250000,0.843,-0.08,-0.48,-0.24,-9.98,3.72
573533.296000,0.897,-0.112,-0.529,2.72,-6.35,-0.24
573533.343000,0.874,-0.126,-0.479,1.25,-3.11,3.54
573533.390000,0.877,-0.145,-0.468,3.36,-1.62,3.14
573533.437000,0.849,-0.095,-0.445,5.92,2.29,-2.29
573533.484000,0.824,-0.07,-0.447,1.56,-4.79,8.82
573533.531000,0.827,-0.14,-0.45,0.64,-6.5,8.97
573533.578000,0.857,-0.152,-0.501,0.95,-5.16,4.15
573533.625000,0.834,-0.15,-0.444,0.58,-2.29,3.75
573533.671000,0.846,-0.099,-0.481,-0.76,-7.08,-5.62
573533.718000,0.861,-0.116,-0.456,-2.47,-4.36,4.49
573533.765000,0.89,-0.158,-0.507,0.73,-2.9,7.78
573533.812000,0.867,-0.174,-0.485,1.62,3.66,4.7
573533.859000,0.831,-0.139,-0.463,-2.14,-4.52,0.43
573533.906000,0.854,-0.125,-0.475,-0.21,-1.1,6.1
573533.953000,0.843,-0.198,-0.491,2.29,0.52,12.6
573534.000000,0.827,-0.203,-0.479,0.76,1.34,-0.49
573534.046000,0.833,-0.168,-0.461,2.29,0.55,-2.81
573534.093000,0.843,-0.185,-0.509,1.89,-0.12,-2.17
573534.140000,0.832,-0.152,-0.46,5.89,1.4,-0.49
573534.187000,0.824,-0.143,-0.472,1.95,-0.31,-0.37
573534.234000,0.829,-0.145,-0.457,0.67,-1.46,-2.11
573534.281000,0.853,-0.154,-0.5,0.73,-3.66,1.95
573534.328000,0.841,-0.185,-0.488,1.95,2.81,2.72
573534.375000,0.829,-0.176,-0.463,3.02,-3.2,-2.29
573534.421000,0.835,-0.165,-0.508,5.49,-8.51,-1.89
573534.468000,0.838,-0.168,-0.474,2.87,-1.83,-3.78
