t_monotonic,ax,ay,az,gx,gy,gz
508464.000000,0.03,-0.921,0.537,2.2,-8.88,16.94
508464.046000,0.003,-0.911,0.51,0.58,-13.73,13.03
508464.093000,0.0,-0.897,0.451,-0.98,-17.88,12.02
508464.140000,0.022,-0.894,0.428,7.72,-11.51,14.37
508464.187000,0.005,-0.904,0.481,7.69,-12.36,16.94
508464.234000,-0.014,-0.938,0.484,6.29,-11.54,17.37
508464.281000,-0.055,-0.961,0.508,4.76,-13.98,12.51
508464.328000,-0.068,-0.961,0.473,0.82,-18.71,8.33
508464.375000,-0.054,-0.935,0.427,3.6,-16.82,3.39
508464.421000,-0.042,-0.942,0.379,2.62,-11.02,0.52
508464.468000,-0.032,-0.91,0.352,6.68,-0.12,-3.05
508464.515000,-0.036,-0.896,0.405,6.65,5.74,-4.21
508464.562000,-0.022,-0.866,0.416,6.5,13.4,-7.39
508464.609000,-0.027,-0.882,0.491,8.64,19.35,-2.96
508464.656000,-0.021,-0.883,0.527,8.18,14.37,-0.82
508464.703000,-0.006,-0.878,0.541,10.62,11.6,-2.96
508464.750000,0.004,-0.863,0.522,-3.85,9.8,-4.46
508464.796000,0.024,-0.854,0.526,1.13,7.32,0.76
508464.843000,0.02,-0.871,0.522,-0.7,6.62,1.92
508464.890000,-0.009,-0.88,0.548,3.42,5.13,3.11
508464.937000,-0.022,-0.876,0.543,2.96,1.83,2.04
508464.984000,-0.038,-0.873,0.53,4.03,-2.53,0.67
508465.031000,-0.034,-0.881,0.483,5.8,-5.01,0.85
508465.078000,-0.053,-0.892,0.444,-3.3,-0.89,-2.04
508465.125000,-0.034,-0.862,0.413,-2.47,3.05,-1.83
508465.171000,-0.025,-0.882,0.421,-3.91,14.98,3.51
508465.218000,-0.031,-0.852,0.466,-0.64,19.87,5.8
508465.265000,-0.039,-0.845,0.519,3.66,22.71,9.64
508465.312000,-0.07,-0.845,0.585,8.33,23.56,13.4
508465.359000,-0.068,-0.818,0.597,0.92,18.19,11.02
508465.406000,-0.069,-0.826,0.615,3.23,14.95,15.26
508465.453000,-0.072,-0.847,0.595,4.46,4.27,18.89
508465.500000,-0.093,-0.907,0.561,-1.59,-2.78,18.77
508465.546000,-0.105,-0.92,0.521,0.55,-7.93,19.56
508465.593000,-0.171,-0.975,0.526,-6.87,-10.5,12.63
508465.640000,-0.163,-0.94,0.464,-8.91,-16.82,2.35
508465.687000,-0.167,-0.91,0.463,-7.29,-11.51,-3.94
508465.734000,-0.18,-0.829,0.478,2.38,-7.35,-7.48
508465.781000,-0.172,-0.782,0.476,1.13,-7.63,-2.23
508465.828000,-0.176,-0.79,0.49,4.46,-3.94,3.36
508465.875000,-0.157,-0.797,0.498,2.14,-5.49,10.13
508465.921000,-0.17,-0.798,0.49,-0.37,-3.51,17.49
508465.968000,-0.154,-0.902,0.445,-8.48,-1.65,15.23
508466.015000,-0.137,-0.921,0.443,-3.88,6.44,10.35
508466.062000,-0.158,-0.876,0.466,11.96,11.75,13.92
508466.109000,-0.177,-0.84,0.53,8.82,14.65,12.54
508466.156000,-0.191,-0.865,0.521,-0.37,7.54,18.56
508466.203000,-0.181,-0.901,0.513,5.43,7.6,14.16
508466.250000,-0.192,-0.862,0.538,6.96,10.01,9.34
508466.296000,-0.218,-0.823,0.544,6.99,4.97,10.65
508466.343000,-0.177,-0.848,0.492,-4.82,3.69,6.23
508466.390000,-0.217,-0.858,0.554,6.07,6.71,8.39
508466.453000,-0.211,-0.861,0.551,2.84,3.88,5.77
508466.500000,-0.24,-0.883,0.575,8.21,0.67,7.29
508466.546000,-0.265,-0.933,0.563,-1.62,-6.65,-0.95
508466.593000,-0.244,-0.904,0.502,-1.04,-7.87,-8.76
508466.640000,-0.251,-0.881,0.499,-1.19,-3.94,-11.81
508466.687000,-0.239,-0.845,0.483,-3.94,0.12,-16.51
508466.734000,-0.219,-0.873,0.481,-5.71,7.32,-18.31
508466.781000,-0.215,-0.901,0.487,-6.5,10.9,-21.61
508466.828000,-0.156,-0.909,0.474,-7.48,13.09,-26.18
508466.875000,-0.118,-0.919,0.501,-10.59,21.82,-33.3
508466.921000,-0.132,-0.923,0.546,-7.45,22.25,-34.91
508466.968000,-0.136,-0.961,0.556,-13.28,15.05,-40.68
508467.015000,-0.116,-0.97,0.512,-22.37,10.28,-50.87
508467.062000,-0.072,-0.966,0.498,-15.96,3.97,-56.58
508467.109000,-0.042,-0.9,0.458,-7.97,3.36,-52.67
508467.156000,-0.03,-0.878,0.482,-12.54,-1.25,-51.39
508467.203000,-0.003,-0.876,0.432,-17.06,-1.83,-48.22
508467.250000,0.023,-0.868,0.447,-20.05,-4.24,-47.82
508467.296000,0.105,-0.882,0.375,-23.83,-3.72,-45.87
508467.343000,0.104,-0.905,0.377,-26.34,1.28,-43.52
508467.390000,0.169,-0.931,0.332,-21.61,-2.47,-40.68
508467.437000,0.214,-0.898,0.286,-18.46,5.13,-37.87
508467.484000,0.233,-0.913,0.304,-12.79,13.43,-32.84
508467.531000,0.234,-0.915,0.308,-16.75,17.52,-31.74
508467.578000,0.184,-0.939,0.391,-5.83,8.85,-29.18
508467.625000,0.285,-0.883,0.262,-12.48,6.78,-31.19
508467.671000,0.325,-0.919,0.282,-25.33,16.69,-36.9
508467.718000,0.379,-0.943,0.254,-34.79,16.57,-40.93
508467.765000,0.413,-0.986,0.263,-47.49,35.65,-39.43
508467.812000,0.485,-1.002,0.281,-28.02,29.76,-51.64
508467.859000,0.607,-1.003,0.23,-36.77,45.78,-58.81
508467.906000,0.602,-1.042,0.398,-54.63,44.22,-67.69
508467.953000,0.609,-1.053,0.335,-43.49,32.01,-59.39
508468.000000,0.698,-0.965,0.361,-85.6,29.76,-105.9
508468.046000,0.669,-0.965,0.306,-31.37,18.46,-87.86
508468.093000,0.706,-0.802,0.185,-47.55,12.88,-96.44
508468.140000,0.605,-0.706,0.229,-23.07,13.67,-76.91
508468.187000,0.592,-0.651,0.158,30.06,15.26,-36.44
508468.234000,0.556,-0.582,0.147,9.06,5.25,-8.58
508468.281000,0.564,-0.637,0.122,-18.13,5.55,-19.23
508468.328000,0.545,-0.6,0.143,-30.52,-8.39,-33.81
508468.375000,0.546,-0.586,0.065,-13.67,-17.18,-22.98
508468.421000,0.604,-0.587,-0.018,-37.75,-10.56,-50.48
508468.468000,0.688,-0.569,0.004,-37.84,-16.33,-66.13
508468.515000,0.745,-0.477,-0.118,-23.35,-9.31,-64.85
508468.562000,0.74,-0.424,-0.053,14.65,-17.15,-43.58
508468.609000,0.698,-0.375,-0.124,25.79,-16.14,-41.93
508468.656000,0.586,-0.294,-0.058,45.38,-20.08,-44.89
508468.703000,0.483,-0.169,-0.032,42.63,-39.61,-49.5
508468.750000,0.325,-0.085,-0.054,61.53,-59.69,-43.52
508468.796000,0.317,-0.059,-0.095,55.88,-83.8,-38.39
508468.843000,0.232,-0.031,-0.053,71.23,-98.91,-16.79
508468.890000,0.413,-0.169,-0.201,45.2,-154.09,26.22
508468.937000,0.78,-0.311,-0.573,29.11,-126.41,32.41
508468.984000,1.188,-0.567,-0.75,7.97,-105.04,87.83
508469.031000,1.157,-0.542,-0.828,-8.67,-83.29,83.56
508469.078000,1.008,-0.807,-0.633,113.38,10.96,210.91
508469.125000,0.974,-1.033,-0.838,-41.29,-2.66,128.82
508469.171000,0.751,-1.156,-0.529,30.64,98.09,142.7
508469.218000,0.874,-1.063,-0.691,-53.25,-0.7,54.29
508469.265000,0.697,-1.02,-0.306,5.58,52.61,73.03
508469.328000,0.688,-0.903,-0.426,-13.61,31.25,17.46
508469.375000,0.532,-0.822,-0.235,-9.09,35.58,-3.72
508469.421000,0.504,-0.815,-0.287,13.73,28.29,11.75
508469.468000,0.616,-0.765,-0.426,-8.03,30.98,-16.66
508469.515000,0.532,-0.782,-0.306,-16.17,41.54,-10.16
508469.562000,0.621,-0.809,-0.427,-12.24,44.28,-14.53
508469.609000,0.54,-0.824,-0.219,-35.4,46.39,-36.26
508469.656000,0.625,-0.808,-0.311,3.81,28.02,-27.31
508469.703000,0.668,-0.733,-0.207,-32.69,38.42,-68.67
508469.750000,0.684,-0.684,-0.357,-31.68,36.99,-56.15
508469.796000,0.677,-0.516,-0.169,-33.14,57.99,-59.05
508469.843000,0.77,-0.462,-0.177,-11.14,35.62,-28.72
508469.890000,0.788,-0.435,-0.132,-0.37,8.06,-9.16
508469.937000,0.779,-0.442,-0.179,-0.12,1.01,5.8
508469.984000,0.821,-0.531,-0.123,-17.82,-1.04,-5.13
508470.031000,0.703,-0.516,-0.028,-8.91,-19.38,0.7
508470.078000,0.718,-0.611,-0.253,5.16,-39.22,26.49
508470.125000,0.719,-0.886,-0.436,-8.09,-44.83,-8.91
508470.171000,0.773,-0.83,-0.582,-2.87,-9.19,-41.66
508470.218000,0.739,-0.644,-0.43,4.85,15.72,-58.75
508470.265000,0.801,-0.406,-0.329,24.11,13.18,-55.21
508470.312000,0.824,-0.25,-0.189,6.07,11.38,-58.53
508470.359000,0.828,-0.245,-0.281,-13.52,-24.54,-36.16
508470.406000,0.732,-0.549,-0.411,-15.99,-40.62,0.52
508470.453000,0.804,-0.586,-0.585,5.4,-17.06,-19.23
508470.500000,0.779,-0.486,-0.593,-26.06,14.5,-46.54
508470.562000,0.771,-0.447,-0.586,-12.51,33.57,-30.67
508470.609000,0.696,-0.462,-0.501,-5.65,47.91,-20.11
508470.656000,0.726,-0.174,-0.35,-29.54,48.83,-56.86
508470.703000,0.805,-0.01,-0.216,-43.86,32.56,-42.57
508470.750000,0.801,-0.027,-0.13,-45.53,21.55,-8.67
508470.796000,0.805,-0.198,-0.086,-38.91,14.07,21.7
508470.843000,0.881,-0.221,-0.257,-56.64,25.48,8.97
508470.890000,0.978,-0.294,-0.227,-21.85,26.06,20.97
508470.937000,1.019,-0.299,-0.239,-40.07,47.61,1.74
508470.984000,1.006,-0.257,-0.146,-13.92,25.91,12.12
508471.031000,0.91,-0.313,-0.048,-21.49,13.28,13.82
508471.078000,1.053,-0.12,-0.199,-28.9,-4.18,-18.01
508471.125000,0.988,-0.156,-0.21,-25.36,-7.42,11.78
508471.171000,1.007,-0.2,-0.277,-21.06,-5.01,23.96
508471.218000,0.969,-0.227,-0.331,-47.82,-2.01,2.14
508471.265000,0.923,-0.194,-0.287,-48.86,7.66,0.34
508471.312000,0.926,-0.213,-0.252,-69.8,6.59,-1.1
508471.359000,0.866,-0.133,-0.274,-73.46,9.28,-10.77
508471.406000,0.843,-0.183,-0.118,-86.12,-1.65,5.77
508471.453000,0.816,-0.158,-0.07,-80.81,6.9,2.17
508471.500000,0.916,-0.287,-0.147,-47.18,-51.06,2.81
508471.546000,0.975,-0.166,-0.32,-22.83,-34.15,-19.71
508471.593000,1.003,-0.171,-0.422,-26.76,-49.29,-5.52
508471.640000,1.015,-0.143,-0.57,4.55,-17.0,-1.37
508471.687000,0.963,-0.084,-0.492,17.37,10.35,-12.76
508471.734000,0.929,-0.029,-0.475,21.06,31.53,-4.76
508471.781000,0.914,-0.031,-0.317,20.51,26.46,-1.8
508471.828000,0.888,-0.08,-0.27,9.13,23.1,5.83
508471.875000,0.91,-0.06,-0.298,4.67,22.64,2.29
508471.921000,0.874,-0.07,-0.223,6.07,16.6,4.61
508471.968000,0.93,-0.075,-0.237,9.52,4.15,1.01
508472.015000,0.939,-0.134,-0.22,-4.73,-7.02,2.04
508472.062000,0.949,-0.124,-0.29,-1.1,-5.37,-2.01
508472.109000,0.9,-0.136,-0.241,5.83,-7.75,0.4
508472.156000,0.904,-0.089,-0.222,10.04,-4.58,-1.46
508472.203000,0.872,-0.088,-0.201,13.46,-13.86,1.77
508472.250000,0.911,-0.079,-0.312,6.99,-28.63,5.55
508472.296000,0.91,-0.135,-0.353,8.18,-22.61,7.75
508472.343000,0.952,-0.15,-0.42,8.73,-17.76,4.91
508472.390000,0.95,-0.17,-0.407,13.76,1.74,1.16
508472.437000,0.94,-0.164,-0.379,9.98,1.1,-4.85
508472.484000,0.934,-0.129,-0.334,16.05,7.84,-6.04
508472.531000,0.921,-0.119,-0.296,13.0,8.61,-5.04
508472.578000,0.91,-0.171,-0.299,15.38,3.33,-3.36
508472.625000,0.87,-0.158,-0.251,16.66,-3.08,-3.27
508472.671000,0.893,-0.176,-0.323,22.25,-10.04,-0.76
508472.718000,0.889,-0.186,-0.338,25.91,-7.97,0.76
508472.765000,0.893,-0.166,-0.337,23.35,-11.35,-1.62
508472.812000,0.919,-0.181,-0.391,21.76,-11.17,-0.55
508472.859000,0.917,-0.174,-0.376,20.45,-10.13,-2.78
508472.906000,0.908,-0.184,-0.364,15.5,-3.17,1.46
508472.953000,0.892,-0.194,-0.359,16.14,-6.29,-1.16
508473.000000,0.871,-0.194,-0.32,14.01,-7.11,-0.43
508473.046000,0.9,-0.211,-0.348,15.14,-10.04,-0.15
508473.093000,0.902,-0.227,-0.361,11.72,-9.8,-0.67
508473.140000,0.896,-0.26,-0.387,10.86,-4.36,-2.23
508473.187000,0.876,-0.27,-0.392,16.24,0.98,-3.14
508473.234000,0.876,-0.229,-0.356,11.02,6.87,-6.78
508473.281000,0.866,-0.222,-0.352,8.48,5.58,-3.94
508473.328000,0.874,-0.201,-0.318,10.71,7.97,-4.3
508473.375000,0.901,-0.23,-0.394,2.84,-3.75,6.07
508473.421000,0.897,-0.245,-0.421,-0.52,0.73,-0.52
508473.468000,0.891,-0.196,-0.411,-4.0,2.23,-3.91
508473.515000,0.873,-0.177,-0.396,-9.0,4.36,-0.34
508473.562000,0.866,-0.165,-0.369,-17.4,3.91,1.89
508473.609000,0.862,-0.193,-0.345,-18.95,-1.5,7.45
508473.656000,0.875,-0.187,-0.362,-21.21,0.85,6.23
508473.703000,0.881,-0.207,-0.339,-20.69,-1.43,11.87
508473.750000,0.893,-0.197,-0.358,-22.77,0.09,11.87
508473.796000,0.887,-0.237,-0.359,-20.91,-3.45,16.51
508473.843000,0.903,-0.234,-0.357,-18.89,-0.18,10.47
508473.890000,0.894,-0.239,-0.359,-14.89,-0.03,9.03
508473.937000,0.897,-0.213,-0.346,-12.67,3.42,5.92
508473.984000,0.871,-0.216,-0.33,-8.61,0.27,9.58
508474.031000,0.882,-0.214,-0.379,-7.2,-0.67,8.18
508474.078000,0.88,-0.205,-0.366,-9.16,0.15,5.37
508474.125000,0.892,-0.203,-0.375,-7.66,1.07,5.34
508474.171000,0.895,-0.197,-0.367,-9.09,0.7,7.39
508474.218000,0.912,-0.212,-0.378,-6.65,4.36,6.26
508474.265000,0.904,-0.203,-0.362,-4.06,2.93,3.33
508474.312000,0.893,-0.19,-0.36,-3.08,2.99,1.25
508474.359000,0.904,-0.195,-0.354,0.4,4.3,-1.74
508474.406000,0.889,-0.163,-0.327,2.5,-1.43,-6.2
508474.453000,0.914,-0.148,-0.312,5.92,-1.56,-3.14
508474.500000,0.923,-0.219,-0.421,0.98,-17.49,3.05
508474.546000,0.901,-0.215,-0.404,5.49,-3.17,-10.93
508474.593000,0.907,-0.195,-0.374,8.45,-3.33,-8.61
508474.640000,0.891,-0.192,-0.338,13.12,5.49,-9.0
508474.687000,0.898,-0.187,-0.372,8.21,-2.44,-9.7
508474.734000,0.9,-0.206,-0.375,13.46,3.91,-11.38
508474.781000,0.891,-0.207,-0.378,17.33,9.06,-11.81
508474.828000,0.871,-0.212,-0.338,22.74,10.65,-11.02
508474.875000,0.86,-0.212,-0.32,20.08,-1.37,-12.79
508474.921000,0.844,-0.218,-0.277,13.76,-14.07,-16.3
508474.968000,0.863,-0.212,-0.374,19.32,-18.68,-17.43
508475.015000,0.87,-0.232,-0.378,19.01,-17.67,-14.34
508475.062000,0.87,-0.218,-0.421,19.59,-19.32,-15.87
508475.109000,0.881,-0.219,-0.436,21.45,-8.88,-15.17
508475.156000,0.877,-0.19,-0.438,18.25,-9.55,-16.33
508475.203000,0.874,-0.174,-0.393,16.75,-5.68,-11.57
508475.250000,0.881,-0.183,-0.431,13.86,-7.84,-12.48
508475.296000,0.866,-0.196,-0.429,14.65,-4.09,-9.74
508475.343000,0.858,-0.184,-0.463,13.06,-1.59,-9.98
508475.390000,0.859,-0.166,-0.44,13.82,3.66,-6.62
508475.437000,0.854,-0.175,-0.447,14.4,6.2,-1.31
508475.484000,0.845,-0.161,-0.436,9.55,9.86,-1.1
508475.531000,0.864,-0.162,-0.357,3.3,13.58,5.55
508475.578000,0.87,-0.187,-0.39,1.1,4.52,13.7
508475.625000,0.868,-0.183,-0.42,1.86,7.69,11.84
508475.671000,0.861,-0.185,-0.366,-1.46,7.54,10.93
508475.718000,0.868,-0.196,-0.396,-5.43,4.64,13.03
508475.765000,0.866,-0.2,-0.387,-8.42,5.77,14.37
508475.812000,0.887,-0.209,-0.442,-11.57,2.87,14.22
508475.859000,0.884,-0.196,-0.389,-15.63,10.74,13.09
508475.906000,0.888,-0.21,-0.389,-21.58,6.87,13.15
508475.953000,0.888,-0.225,-0.381,-23.38,5.83,13.34
508476.000000,0.891,-0.224,-0.365,-22.49,6.5,10.35
508476.046000,0.892,-0.231,-0.365,-22.64,6.04,8.21
508476.093000,0.899,-0.21,-0.366,-18.16,8.0,4.03
508476.140000,0.888,-0.192,-0.363,-16.51,9.34,3.54
508476.187000,0.882,-0.185,-0.362,-17.12,8.12,5.07
508476.234000,0.887,-0.191,-0.35,-17.76,7.17,6.1
508476.281000,0.893,-0.205,-0.336,-15.56,5.62,7.08
508476.328000,0.902,-0.206,-0.345,-14.5,6.81,3.27
508476.375000,0.903,-0.211,-0.33,-12.15,6.68,4.85
508476.421000,0.902,-0.212,-0.318,-7.84,8.45,2.84
508476.468000,0.907,-0.203,-0.316,-7.11,7.51,3.91
508476.515000,0.896,-0.216,-0.309,-1.8,4.09,4.43
508476.562000,0.899,-0.201,-0.315,-3.2,3.14,-0.03
508476.609000,0.905,-0.205,-0.326,-2.78,0.46,2.44
508476.656000,0.912,-0.213,-0.345,0.67,2.66,-0.18
508476.703000,0.91,-0.21,-0.341,0.24,4.55,0.06
508476.750000,0.905,-0.213,-0.33,1.4,1.34,-1.68
508476.796000,0.91,-0.211,-0.328,2.35,7.2,-2.44
508476.843000,0.893,-0.209,-0.289,2.69,1.86,-2.59
508476.890000,0.898,-0.227,-0.329,2.66,2.99,-2.11
508476.937000,0.903,-0.203,-0.306,3.81,0.79,-4.94
508476.984000,0.902,-0.198,-0.313,2.14,1.28,-2.01
508477.031000,0.905,-0.206,-0.328,4.18,0.61,-2.62
508477.078000,0.906,-0.189,-0.305,0.64,-1.77,-3.69
508477.125000,0.906,-0.21,-0.327,1.62,-2.62,-0.98
508477.171000,0.904,-0.209,-0.339,-0.49,-0.67,-2.01
508477.218000,0.895,-0.203,-0.315,2.99,0.76,-1.83
508477.265000,0.901,-0.195,-0.308,-0.15,-1.16,-0.79
508477.312000,0.923,-0.217,-0.354,-0.09,-0.34,0.24
508477.359000,0.915,-0.199,-0.331,2.32,3.39,-0.12
508477.406000,0.91,-0.208,-0.32,2.08,4.24,-0.73
508477.453000,0.885,-0.239,-0.353,-0.73,1.59,-5.34
508477.500000,0.862,-0.176,-0.301,5.71,10.13,-7.17
508477.546000,0.903,-0.124,-0.192,1.98,-3.63,4.18
508477.593000,0.944,-0.201,-0.32,-8.48,-12.79,3.75
508477.640000,0.916,-0.263,-0.396,-3.17,-4.39,7.69
508477.687000,0.916,-0.269,-0.387,1.89,2.56,1.98
508477.734000,0.891,-0.188,-0.315,4.61,5.1,-2.84
508477.781000,0.901,-0.173,-0.301,1.77,-0.43,-0.98
508477.828000,0.907,-0.169,-0.316,-3.48,-4.94,-1.62
508477.875000,0.912,-0.214,-0.338,-3.54,0.89,-0.34
508477.921000,0.902,-0.186,-0.312,2.38,1.31,0.21
508477.968000,0.915,-0.165,-0.289,0.37,1.83,1.13
508478.015000,0.932,-0.208,-0.352,-0.09,-0.15,2.04
508478.062000,0.905,-0.201,-0.335,1.98,4.36,-2.35
508478.109000,0.89,-0.165,-0.276,11.99,1.83,-0.09
508478.156000,0.933,-0.137,-0.261,9.49,-8.21,-0.09
508478.218000,0.958,-0.196,-0.377,5.04,-7.78,-4.3
508478.265000,0.873,-0.235,-0.43,15.96,5.16,-5.22
508478.312000,0.868,-0.109,-0.177,20.66,11.14,-6.32
508478.359000,0.915,-0.17,-0.251,16.85,-12.79,2.87
508478.406000,0.869,-0.189,-0.384,17.67,-7.57,-2.87
508478.453000,0.891,-0.186,-0.235,25.15,-6.93,2.44
508478.500000,0.92,-0.233,-0.357,20.26,-16.45,0.12
508478.546000,0.842,-0.247,-0.38,23.74,-9.06,0.49
508478.593000,0.845,-0.25,-0.31,27.31,-2.41,-0.24
508478.640000,0.873,-0.313,-0.284,8.58,-9.0,-3.3
508478.703000,0.937,-0.475,-0.526,-9.31,-18.71,10.41
508478.750000,0.915,-0.433,-0.59,1.83,9.89,1.86
508478.796000,0.902,-0.185,-0.358,0.52,40.83,-13.76
508478.843000,0.838,-0.159,-0.174,-15.93,21.64,2.35
508478.890000,0.857,-0.192,-0.131,-11.47,6.41,14.44
508478.937000,0.889,-0.297,-0.188,-25.3,-11.87,5.58
508478.984000,0.927,-0.326,-0.284,-8.94,-5.28,0.49
508479.031000,0.938,-0.299,-0.343,0.09,0.21,-0.34
508479.078000,0.945,-0.253,-0.406,6.81,6.23,-3.33
508479.125000,0.894,-0.216,-0.349,10.77,9.46,-6.47
508479.171000,0.872,-0.165,-0.315,6.23,5.07,-7.87
508479.218000,0.841,-0.196,-0.312,5.04,-2.5,-6.2
508479.265000,0.835,-0.215,-0.307,-4.27,-11.14,-9.67
508479.312000,0.909,-0.176,-0.441,-31.31,-27.41,-20.54
508479.359000,0.905,-0.198,-0.397,-18.56,0.37,-12.73
508479.406000,0.949,-0.139,-0.383,-21.03,8.33,-10.77
508479.453000,0.915,-0.161,-0.342,-2.47,22.25,-1.31
508479.500000,0.909,-0.137,-0.36,-12.51,15.78,0.34
508479.546000,0.901,-0.086,-0.339,-2.14,19.81,-3.36
508479.593000,0.884,-0.11,-0.271,-7.97,11.14,-2.78
508479.640000,0.96,-0.05,-0.295,-13.55,15.78,-0.34
508479.687000,0.926,-0.161,-0.293,-18.43,0.43,4.82
508479.734000,0.935,-0.184,-0.284,-11.69,8.73,-0.55
508479.781000,0.906,-0.174,-0.274,-2.81,3.63,2.35
508479.828000,0.941,-0.136,-0.272,-1.04,5.13,-6.87
508479.890000,0.938,-0.118,-0.228,-4.52,1.8,2.14
508479.937000,0.968,-0.125,-0.293,-4.03,1.13,-0.27
508479.984000,0.915,-0.17,-0.236,2.17,0.43,1.4
508480.031000,0.928,-0.143,-0.274,5.37,4.33,-4.39
508480.078000,0.935,-0.174,-0.22,9.09,-1.83,-2.29
508480.125000,0.961,-0.156,-0.265,12.45,-7.2,-3.88
508480.171000,0.966,-0.135,-0.234,18.4,0.06,-8.06
508480.218000,0.955,-0.129,-0.181,23.47,1.31,-7.66
508480.265000,0.976,-0.161,-0.157,34.18,-4.88,-1.34
508480.328000,0.966,-0.147,-0.002,35.77,14.53,-20.2
508480.375000,0.956,-0.14,0.074,27.1,4.55,-24.41
508480.421000,0.993,-0.079,0.206,45.56,25.36,-31.07
508480.468000,0.902,0.082,0.492,11.75,24.29,-55.94
508480.515000,0.895,-0.009,0.263,0.95,-53.59,-2.5
508480.562000,0.885,-0.125,-0.08,-24.26,-58.26,-5.8
508480.609000,0.895,-0.177,-0.405,-19.87,-85.3,0.73
508480.656000,0.859,-0.152,-0.632,-19.65,-46.88,-13.49
508480.703000,0.923,-0.138,-0.78,-24.96,-47.85,-10.47
508480.750000,0.835,0.074,-0.73,-21.27,-25.51,-16.11
508480.796000,0.679,0.177,-0.702,-41.14,-32.38,11.57
508480.843000,0.694,0.184,-0.798,-44.28,-47.55,22.71
508480.890000,0.523,0.29,-0.853,-44.74,-19.93,25.73
508480.937000,0.764,0.015,-1.006,-58.14,-52.4,20.17
508480.984000,0.828,-0.111,-0.878,-1.98,-4.27,55.57
508481.031000,0.72,-0.049,-0.652,13.43,11.29,26.0
508481.078000,0.691,-0.018,-0.571,7.78,-8.7,28.44
508481.125000,0.742,-0.068,-0.607,11.54,3.36,5.98
508481.171000,0.768,0.053,-0.523,-5.92,-2.9,-18.1
508481.218000,0.827,0.002,-0.613,4.67,-7.17,15.75
508481.265000,0.799,-0.103,-0.596,-8.39,-8.67,-4.24
508481.312000,0.821,-0.023,-0.528,3.81,3.3,1.74
508481.359000,0.774,-0.025,-0.553,-6.87,-6.68,-1.04
508481.406000,0.806,-0.059,-0.542,1.98,-6.62,17.73
508481.453000,0.783,-0.109,-0.609,-1.95,-9.4,6.44
508481.500000,0.794,-0.104,-0.577,4.18,-0.21,10.68
508481.546000,0.781,-0.074,-0.577,-2.23,-6.56,4.27
508481.593000,0.764,-0.101,-0.571,0.55,0.18,10.35
508481.640000,0.772,-0.105,-0.617,-3.39,-4.97,0.58
508481.687000,0.782,-0.074,-0.575,1.98,3.23,-0.03
508481.750000,0.768,-0.098,-0.583,2.62,-1.16,6.32
508481.796000,0.769,-0.077,-0.58,-1.8,-3.78,0.09
508481.843000,0.757,-0.104,-0.616,-2.01,-4.18,5.98
508481.890000,0.776,-0.097,-0.608,-0.4,-2.01,-0.55
508481.937000,0.784,-0.099,-0.617,0.03,-2.78,1.59
508481.984000,0.787,-0.094,-0.597,0.95,-1.98,2.47
508482.031000,0.781,-0.095,-0.615,0.43,-4.36,4.94
508482.078000,0.771,-0.129,-0.606,0.92,-1.13,5.83
508482.140000,0.771,-0.085,-0.612,2.08,3.05,-2.99
508482.187000,0.757,-0.12,-0.606,0.61,-0.43,1.4
508482.234000,0.754,-0.09,-0.591,2.35,0.79,0.98
508482.281000,0.763,-0.106,-0.601,1.22,-0.58,2.38
508482.328000,0.759,-0.12,-0.601,1.74,-0.46,2.59
508482.375000,0.749,-0.105,-0.593,-3.54,-0.52,-3.36
508482.421000,0.779,-0.103,-0.642,-2.84,-2.14,-1.13
508482.468000,0.78,-0.131,-0.6,0.37,-0.89,1.37
508482.515000,0.763,-0.108,-0.611,0.79,3.81,-0.85
508482.562000,0.755,-0.118,-0.618,0.09,0.95,-0.58
508482.609000,0.765,-0.103,-0.596,1.53,2.99,-1.1
508482.656000,0.753,-0.122,-0.634,2.75,-3.02,4.21
508482.703000,0.752,-0.142,-0.576,-0.43,0.89,-3.45
508482.750000,0.768,-0.073,-0.593,0.03,-0.09,-1.19
508482.796000,0.757,-0.125,-0.6,-0.31,-3.14,2.04
508482.843000,0.768,-0.101,-0.612,-0.12,2.5,-3.51
508482.890000,0.764,-0.1,-0.61,2.08,-1.16,1.95
508482.937000,0.755,-0.095,-0.607,0.7,1.37,1.31
508482.984000,0.775,-0.128,-0.626,5.01,-2.96,9.31
508483.031000,0.754,-0.126,-0.598,1.22,1.53,-2.56
508483.078000,0.772,-0.132,-0.616,3.75,4.43,1.65
508483.125000,0.771,-0.097,-0.639,6.13,-0.82,4.09
508483.171000,0.752,-0.148,-0.597,4.82,4.33,1.25
508483.218000,0.774,-0.136,-0.652,12.54,-5.83,8.88
508483.265000,0.798,-0.263,-0.794,41.87,-0.24,22.77
508483.312000,0.761,-0.225,-0.885,127.84,9.28,81.67
508483.359000,0.675,-0.335,-0.962,127.57,-1.65,62.11
508483.406000,0.658,-0.417,-0.952,144.84,17.46,38.61
508483.453000,0.613,-0.533,-0.814,136.94,27.77,23.71
508483.500000,0.674,-0.341,-0.767,120.4,22.77,-18.1
508483.546000,0.574,-0.508,-0.298,74.16,52.58,-28.08
508483.593000,0.665,-0.412,-0.305,79.84,10.53,-21.27
508483.640000,0.615,-0.562,-0.049,33.85,44.8,-16.48
508483.687000,0.701,-0.528,-0.071,37.69,26.49,-19.84
508483.734000,0.771,-0.565,-0.044,-32.59,44.56,-54.48
508483.781000,0.761,-0.615,0.066,-30.06,78.04,-55.15
508483.828000,0.977,-0.558,0.04,-82.67,74.43,-99.61
508483.875000,0.903,-0.418,0.182,-65.92,95.95,-89.39
508483.921000,0.768,-0.32,0.3,-64.18,70.53,-71.57
508483.968000,0.827,-0.214,0.226,-54.93,44.19,-53.96
508484.015000,0.852,-0.11,0.337,-39.7,27.5,-53.32
508484.062000,0.916,-0.067,0.319,-48.55,19.32,-33.45
508484.109000,1.001,-0.083,0.147,-39.03,-5.37,-20.36
508484.156000,0.967,-0.287,0.173,-11.63,-3.91,-1.5
508484.203000,1.033,-0.159,0.057,8.82,-8.09,-6.44
508484.250000,0.945,-0.171,0.118,3.11,5.19,-12.79
508484.296000,0.995,-0.136,0.041,21.94,-14.71,-0.61
508484.343000,1.005,-0.053,0.037,10.68,-4.12,-13.06
508484.390000,1.002,-0.091,0.008,14.13,-0.61,0.95
508484.437000,0.978,-0.07,0.033,8.91,1.28,1.04
508484.500000,0.944,-0.103,0.101,6.59,-3.88,6.35
508484.562000,0.991,-0.108,0.045,-3.42,-6.68,-2.04
508484.609000,0.963,-0.121,0.027,4.27,-10.71,7.11
508484.656000,1.008,-0.111,-0.065,4.52,-5.62,-0.4
508484.703000,0.947,-0.124,0.09,2.32,-1.1,6.29
508484.750000,0.973,-0.118,-0.014,-0.67,-5.16,0.49
508484.796000,0.938,-0.168,0.057,-2.26,-11.11,4.97
508484.843000,0.98,-0.135,-0.042,-7.51,-2.69,-5.86
508484.890000,0.976,-0.141,-0.021,-5.19,-8.03,-0.92
508484.937000,0.959,-0.115,-0.028,-18.28,-9.92,-4.36
508484.984000,1.0,-0.096,-0.047,-27.62,-22.37,-6.2
508485.031000,0.976,-0.107,-0.058,-32.2,-11.35,-5.71
508485.078000,1.01,-0.147,-0.152,-18.07,-12.57,-0.21
508485.125000,0.952,-0.129,-0.036,-23.1,-0.92,-9.03
508485.171000,0.972,-0.099,-0.076,-12.94,-4.12,2.99
508485.218000,0.953,-0.118,-0.056,-23.5,-9.03,1.62
508485.265000,0.95,-0.143,-0.083,-14.37,-12.05,4.24
508485.312000,1.002,-0.088,-0.151,-19.87,-14.56,0.61
508485.359000,0.967,-0.111,-0.125,-15.63,-12.73,8.27
508485.406000,0.984,-0.134,-0.152,-14.5,-15.87,4.52
508485.453000,0.949,-0.139,-0.132,-9.09,-5.74,4.64
508485.500000,0.953,-0.142,-0.137,-8.36,-9.8,3.57
508485.546000,0.972,-0.09,-0.163,-8.79,0.67,-3.2
508485.593000,0.971,-0.11,-0.172,-8.18,-10.13,5.4
508485.640000,0.972,-0.11,-0.149,-5.86,-0.49,3.39
508485.687000,0.949,-0.138,-0.143,-7.57,-4.64,3.23
508485.734000,0.97,-0.136,-0.183,0.61,-3.05,1.46
508485.781000,0.961,-0.112,-0.17,-2.11,-2.23,-2.75
508485.828000,0.969,-0.104,-0.201,2.62,-5.22,3.14
508485.875000,0.963,-0.111,-0.192,0.21,-1.19,-1.34
508485.921000,0.946,-0.093,-0.147,4.76,-2.72,1.4
508485.968000,0.952,-0.11,-0.203,0.73,-5.1,3.75
508486.015000,0.954,-0.139,-0.177,3.72,-4.58,4.58
508486.062000,0.963,-0.138,-0.215,2.81,-0.76,0.03
508486.109000,0.968,-0.135,-0.209,5.01,1.8,0.03
508486.156000,0.965,-0.107,-0.195,2.01,4.15,-3.17
508486.203000,0.947,-0.126,-0.187,5.77,2.75,2.04
508486.250000,0.938,-0.126,-0.167,3.3,4.21,-2.32
508486.296000,0.939,-0.123,-0.183,3.02,0.27,-0.15
508486.343000,0.953,-0.13,-0.193,0.55,2.35,-1.19
508486.390000,0.954,-0.115,-0.18,2.5,1.89,1.01
508486.437000,0.953,-0.129,-0.198,1.65,0.79,2.56
508486.484000,0.945,-0.118,-0.166,0.58,-0.24,0.15
508486.531000,0.953,-0.138,-0.197,2.17,-3.78,3.97
508486.578000,0.953,-0.107,-0.17,-4.15,0.27,-0.15
508486.625000,0.95,-0.137,-0.184,0.92,-3.3,6.71
508486.671000,0.954,-0.156,-0.189,-2.29,-0.4,1.98
508486.718000,0.951,-0.143,-0.183,-0.67,-2.72,3.42
508486.765000,0.958,-0.16,-0.186,1.16,-4.12,4.82
508486.812000,0.954,-0.145,-0.182,-1.43,-1.01,0.85
508486.859000,0.964,-0.162,-0.215,1.95,-3.69,2.2
508486.906000,0.958,-0.142,-0.186,-0.34,2.44,-1.31
508486.953000,0.952,-0.15,-0.188,0.61,0.43,0.0
508487.000000,0.955,-0.16,-0.206,0.98,-0.27,0.79
508487.046000,0.94,-0.139,-0.162,0.98,-0.34,-1.53
508487.093000,0.957,-0.14,-0.204,-2.29,-0.92,-0.49
508487.140000,0.95,-0.166,-0.202,1.28,-1.59,0.61
508487.187000,0.954,-0.126,-0.194,1.22,3.14,-2.14
508487.234000,0.942,-0.144,-0.202,2.2,0.67,1.74
508487.281000,0.952,-0.143,-0.206,-0.52,2.11,-0.73
508487.328000,0.942,-0.14,-0.174,0.27,2.17,0.31
508487.375000,0.948,-0.159,-0.198,-0.67,0.79,0.79
508487.421000,0.95,-0.15,-0.194,1.83,1.46,-0.34
508487.468000,0.955,-0.136,-0.197,-0.46,1.86,-0.4
508487.515000,0.942,-0.143,-0.192,-1.4,-1.16,1.04
508487.562000,0.948,-0.127,-0.188,-0.34,1.01,1.22
508487.609000,0.935,-0.153,-0.189,-3.3,-3.05,2.87
508487.656000,0.953,-0.146,-0.198,-1.62,-2.41,1.19
508487.703000,0.959,-0.155,-0.2,-3.33,-4.03,2.59
508487.750000,0.946,-0.164,-0.203,0.58,-2.38,2.9
508487.796000,0.948,-0.16,-0.206,-2.17,-2.01,0.06
508487.843000,0.954,-0.162,-0.218,0.12,-1.65,0.03
508487.890000,0.96,-0.151,-0.214,1.98,2.29,0.24
508487.937000,0.947,-0.165,-0.209,-1.37,2.29,0.18
508487.984000,0.948,-0.173,-0.203,-0.09,3.57,-1.25
508488.031000,0.939,-0.148,-0.193,1.13,4.24,0.06
508488.078000,0.946,-0.145,-0.188,0.27,2.56,0.43
508488.125000,0.939,-0.152,-0.188,-1.92,-1.37,0.7
508488.171000,0.95,-0.148,-0.208,0.52,0.4,1.71
508488.218000,0.956,-0.161,-0.194,-2.99,-2.69,0.92
508488.265000,0.955,-0.146,-0.223,-0.06,1.74,0.34
508488.312000,0.954,-0.142,-0.177,-2.14,1.74,1.46
508488.359000,0.954,-0.178,-0.169,0.76,1.53,5.01
508488.406000,0.955,-0.183,-0.202,-3.02,0.82,0.79
508488.453000,0.938,-0.167,-0.229,2.23,0.18,-0.21
508488.500000,0.941,-0.13,-0.161,-0.27,1.68,-0.85
508488.546000,0.947,-0.173,-0.158,-0.76,-1.98,5.13
508488.609000,0.95,-0.168,-0.224,-1.31,-1.71,-0.76
508488.656000,0.946,-0.159,-0.172,3.3,2.47,1.46
508488.703000,0.963,-0.175,-0.183,0.21,-1.74,2.2
508488.750000,0.944,-0.178,-0.214,2.59,-0.27,0.34
508488.796000,0.95,-0.149,-0.221,1.68,-0.46,-2.53
508488.843000,0.948,-0.15,-0.191,1.68,3.05,3.23
508488.890000,0.941,-0.191,-0.2,0.98,-0.12,0.85
508488.937000,0.956,-0.159,-0.196,2.29,3.6,-0.55
508488.984000,0.945,-0.174,-0.2,2.08,0.37,1.8
508489.031000,0.933,-0.177,-0.175,0.95,3.88,0.4
508489.078000,0.954,-0.164,-0.215,-0.27,-0.73,-1.34
508489.125000,0.944,-0.157,-0.201,0.67,1.43,0.67
508489.171000,0.953,-0.145,-0.195,-0.34,2.53,0.64
508489.218000,0.943,-0.171,-0.184,-0.67,0.27,3.23
508489.265000,0.941,-0.171,-0.17,-3.27,-0.82,2.04
508489.312000,0.965,-0.188,-0.21,-2.66,-2.04,2.38
508489.359000,0.956,-0.154,-0.185,-2.32,5.43,0.03
508489.406000,0.955,-0.181,-0.173,-1.5,-0.4,3.36
508489.453000,0.954,-0.183,-0.2,-1.56,4.12,0.76
508489.500000,0.95,-0.189,-0.175,1.22,0.76,0.64
508489.546000,0.952,-0.16,-0.181,0.37,2.59,-2.04
508489.593000,0.944,-0.174,-0.187,1.04,-0.55,0.15
508489.640000,0.951,-0.178,-0.194,-0.52,1.07,-0.27
508489.687000,0.94,-0.182,-0.163,1.46,0.79,1.22
508489.734000,0.947,-0.173,-0.181,1.65,0.0,0.15
508489.781000,0.946,-0.17,-0.169,1.16,-1.71,1.31
508489.828000,0.961,-0.17,-0.202,-0.58,-3.57,-0.43
508489.875000,0.955,-0.172,-0.194,0.46,2.47,-0.61
508489.921000,0.948,-0.17,-0.175,0.67,2.44,0.82
508489.968000,0.94,-0.191,-0.192,-0.7,0.46,0.31
508490.015000,0.947,-0.168,-0.171,0.7,-1.71,-0.24
508490.062000,0.952,-0.186,-0.192,-1.43,-1.83,-0.64
508490.109000,0.954,-0.175,-0.19,1.83,-0.92,0.27
508490.156000,0.962,-0.175,-0.186,-2.35,1.13,-2.84
508490.203000,0.951,-0.176,-0.203,3.45,2.53,-0.89
508490.250000,0.936,-0.162,-0.174,-0.73,2.47,-2.62
508490.296000,0.94,-0.155,-0.171,1.1,-1.74,-0.89
508490.343000,0.958,-0.146,-0.196,1.92,0.82,1.83
508490.406000,0.935,-0.165,-0.175,1.77,0.24,4.7
508490.453000,0.947,-0.189,-0.211,2.2,-2.72,2.44
508490.500000,0.947,-0.176,-0.188,-1.5,-1.77,-1.46
508490.546000,0.957,-0.173,-0.199,-2.04,-0.98,-0.92
508490.593000,0.962,-0.163,-0.188,0.09,0.52,-0.49
508490.640000,0.947,-0.164,-0.185,0.85,-0.67,3.75
508490.687000,0.943,-0.193,-0.194,-0.89,2.53,4.09
508490.734000,0.938,-0.188,-0.18,2.75,0.49,1.74
508490.781000,0.947,-0.182,-0.189,-1.04,1.31,1.53
508490.828000,0.947,-0.193,-0.188,0.92,-0.43,-0.31
508490.890000,0.958,-0.158,-0.179,-0.64,2.78,-0.79
508490.937000,0.946,-0.193,-0.198,-2.11,-1.98,3.27
508490.984000,0.945,-0.2,-0.187,-0.55,4.76,-0.21
508491.031000,0.941,-0.196,-0.188,0.46,1.98,-0.55
508491.078000,0.943,-0.195,-0.177,2.62,0.31,0.64
508491.125000,0.947,-0.192,-0.196,2.26,1.92,-0.67
508491.171000,0.952,-0.171,-0.169,2.96,1.62,-2.5
508491.218000,0.952,-0.174,-0.157,2.08,0.18,0.06
508491.265000,0.956,-0.203,-0.168,7.17,0.85,0.98
508491.312000,0.957,-0.213,-0.099,10.38,-0.55,-1.59
508491.359000,0.978,-0.193,-0.065,13.09,-3.54,-4.61
508491.406000,0.972,-0.186,0.047,22.37,2.81,-5.04
508491.453000,0.94,-0.159,0.11,26.15,3.57,-11.63
508491.500000,0.934,-0.233,0.086,28.05,-23.16,-3.02
508491.546000,1.032,-0.175,0.135,34.36,-8.18,-10.56
508491.593000,0.903,-0.059,0.225,17.21,7.6,-12.51
508491.640000,0.982,-0.303,0.008,36.99,-45.81,35.86
508491.687000,0.932,-0.122,0.09,-20.29,1.13,-20.42
508491.734000,0.964,-0.206,-0.131,-6.32,-28.81,16.48
508491.781000,0.816,-0.069,-0.095,-40.25,-3.85,-29.45
508491.828000,0.826,-0.158,-0.235,-35.07,-62.81,19.56
508491.875000,0.779,-0.252,-0.721,-52.22,-67.54,3.78
508491.921000,0.862,-0.134,-0.64,-32.96,-58.69,-6.41
508491.968000,0.714,0.031,-0.611,-58.6,-44.53,-26.98
508492.015000,0.815,0.002,-0.88,-49.75,-65.43,-9.92
508492.062000,0.666,-0.066,-0.757,-39.03,-54.84,16.33
508492.109000,0.845,-0.066,-0.935,-44.13,-42.73,1.5
508492.171000,0.7,-0.16,-0.645,-8.18,-28.47,7.05
508492.218000,0.761,-0.078,-0.734,-7.51,-12.63,-5.19
508492.265000,0.822,-0.061,-0.702,1.65,-22.89,18.22
508492.312000,0.806,-0.197,-0.707,16.88,0.67,23.22
508492.359000,0.776,-0.089,-0.612,4.67,1.65,-4.67
508492.406000,0.788,-0.104,-0.69,13.61,4.88,7.42
508492.453000,0.734,-0.113,-0.558,4.39,5.58,-9.98
508492.500000,0.76,-0.001,-0.594,4.27,5.92,-8.79
508492.546000,0.754,-0.068,-0.545,3.36,-7.84,5.31
508492.593000,0.763,-0.094,-0.641,-2.72,0.15,-4.43
508492.640000,0.76,-0.13,-0.552,6.23,0.15,5.37
508492.687000,0.767,-0.106,-0.615,-3.6,-5.74,-3.33
508492.734000,0.747,-0.121,-0.57,2.32,-2.75,4.85
508492.781000,0.766,-0.097,-0.592,7.51,1.68,-1.65
508492.828000,0.773,-0.082,-0.578,-7.35,-3.94,-8.21
508492.875000,0.796,-0.118,-0.637,-2.35,1.16,1.1
508492.921000,0.777,-0.117,-0.641,-3.63,-3.63,2.9
508492.968000,0.789,-0.123,-0.632,-1.22,1.4,4.21
508493.015000,0.762,-0.103,-0.571,-0.76,-0.98,4.15
508493.062000,0.753,-0.074,-0.566,-9.61,1.13,0.7
508493.109000,0.767,-0.12,-0.597,-8.51,-5.65,7.78
508493.171000,0.761,-0.141,-0.617,-5.98,-0.06,2.04
508493.218000,0.767,-0.139,-0.601,0.21,-5.07,6.53
508493.265000,0.754,-0.146,-0.603,0.85,-1.8,0.34
508493.312000,0.77,-0.113,-0.615,1.71,-4.0,1.34
508493.359000,0.763,-0.123,-0.617,1.4,3.63,-2.62
508493.406000,0.767,-0.104,-0.61,-0.82,-3.3,-0.64
508493.453000,0.746,-0.159,-0.624,4.09,1.13,4.79
508493.500000,0.762,-0.155,-0.626,3.11,-1.25,-0.76
508493.546000,0.754,-0.14,-0.611,6.32,3.2,1.98
508493.593000,0.757,-0.153,-0.626,2.59,-2.35,-2.99
508493.640000,0.761,-0.128,-0.602,4.46,5.28,-4.09
508493.687000,0.753,-0.106,-0.603,0.43,-1.56,-2.84
508493.734000,0.756,-0.151,-0.61,6.9,3.02,2.26
508493.781000,0.738,-0.129,-0.578,4.61,1.74,-3.11
508493.828000,0.752,-0.116,-0.586,4.12,2.5,-1.34
508493.875000,0.774,-0.142,-0.617,3.39,-3.08,1.53
508493.921000,0.753,-0.132,-0.58,1.8,0.18,0.18
508493.968000,0.793,-0.164,-0.626,2.87,0.21,3.57
508494.015000,0.768,-0.13,-0.608,2.17,3.23,-4.0
508494.062000,0.764,-0.124,-0.585,-1.34,0.58,-3.02
508494.109000,0.76,-0.113,-0.599,-1.77,0.31,-1.62
508494.156000,0.747,-0.144,-0.606,-3.57,0.09,-1.1
508494.203000,0.757,-0.142,-0.614,-1.19,1.89,0.43
508494.250000,0.758,-0.16,-0.616,0.31,0.37,-0.37
508494.296000,0.734,-0.125,-0.593,0.24,3.57,-0.64
508494.343000,0.754,-0.138,-0.605,-0.95,1.04,-2.04
508494.406000,0.753,-0.111,-0.594,-1.62,-1.28,-1.04
508494.453000,0.753,-0.131,-0.595,-0.73,-2.99,0.03
508494.500000,0.763,-0.091,-0.604,-3.39,-1.74,-1.34
508494.546000,0.769,-0.157,-0.624,-1.43,-4.73,3.14
508494.593000,0.762,-0.125,-0.617,-0.64,0.43,1.22
508494.640000,0.756,-0.139,-0.587,-0.76,-3.6,3.23
508494.687000,0.735,-0.125,-0.63,-1.1,-1.04,2.93
508494.734000,0.755,-0.117,-0.636,-0.31,-4.67,2.32
508494.781000,0.751,-0.132,-0.691,4.94,0.27,6.23
508494.828000,0.717,-0.236,-0.759,8.85,0.4,3.02
508494.875000,0.752,-0.192,-0.802,28.93,20.26,-10.41
508494.921000,0.715,-0.182,-0.789,32.78,14.34,-0.03
508494.968000,0.659,-0.154,-0.758,49.81,46.24,-19.47
508495.015000,0.7,-0.184,-0.643,54.32,35.83,-22.64
508495.062000,0.708,-0.101,-0.735,49.38,50.45,-22.34
508495.109000,0.719,-0.284,-0.52,52.92,25.76,-7.57
508495.156000,0.809,-0.166,-0.541,39.64,22.8,-6.41
508495.203000,0.785,-0.291,-0.476,30.79,-6.2,0.24
508495.250000,0.92,-0.176,-0.518,21.27,14.16,-18.95
508495.296000,0.797,-0.256,-0.32,18.52,10.07,3.69
508495.343000,0.966,-0.234,-0.415,14.4,8.61,-17.88
508495.406000,0.924,-0.135,-0.32,3.54,33.78,-12.05
508495.453000,0.967,-0.12,-0.313,-3.48,39.25,-4.61
508495.500000,0.901,-0.144,-0.297,-18.46,41.57,-5.52
508495.546000,0.867,-0.219,-0.234,-12.21,33.97,9.31
508495.593000,0.824,-0.297,-0.199,-31.89,27.44,4.21
508495.640000,0.968,-0.216,-0.227,-24.72,24.87,-1.07
508495.687000,0.953,-0.208,-0.232,-26.98,35.55,-4.61
508495.734000,0.9,-0.184,-0.115,-24.45,45.99,6.38
508495.781000,0.912,-0.177,-0.078,-17.15,37.17,5.89
508495.828000,0.94,-0.219,-0.027,-17.58,25.85,7.17
508495.875000,0.966,-0.196,-0.034,-34.79,22.74,-1.01
508495.921000,0.931,-0.134,0.014,-32.29,24.6,-8.91
508495.968000,0.923,-0.16,-0.016,-40.38,1.77,-1.31
508496.015000,0.933,-0.174,-0.051,-32.44,-2.26,1.59
508496.062000,0.949,-0.19,-0.1,-31.46,-6.41,-2.44
508496.109000,0.959,-0.177,-0.099,-11.08,1.95,5.13
508496.156000,0.954,-0.122,-0.091,-16.88,-0.79,2.96
508496.203000,0.963,-0.191,-0.144,-7.45,-5.19,6.84
508496.265000,0.937,-0.175,-0.108,-3.36,-2.93,8.48
508496.312000,0.993,-0.234,-0.21,2.53,-1.53,1.37
508496.359000,0.947,-0.179,-0.153,7.9,7.78,-3.39
508496.406000,0.965,-0.215,-0.184,5.01,2.11,-1.71
508496.453000,0.944,-0.172,-0.17,9.0,4.52,-6.41
508496.500000,0.972,-0.199,-0.181,7.05,3.97,-2.11
508496.546000,0.949,-0.193,-0.158,12.02,2.26,-4.0
508496.593000,0.943,-0.16,-0.174,6.99,6.2,-8.39
508496.640000,0.943,-0.15,-0.189,3.6,-1.74,-2.5
508496.687000,0.922,-0.159,-0.17,2.38,0.21,-2.17
508496.734000,0.944,-0.184,-0.167,1.77,2.04,-1.86
508496.781000,0.965,-0.158,-0.163,-0.18,2.5,-2.9
508496.828000,0.975,-0.151,-0.177,0.67,3.08,-1.04
508496.875000,0.959,-0.17,-0.14,-0.18,2.04,-1.19
508496.921000,0.957,-0.167,-0.143,-0.18,5.83,-1.5
508496.968000,0.961,-0.169,-0.142,-3.51,6.16,-1.71
508497.015000,0.951,-0.15,-0.122,-1.62,7.54,-2.08
508497.062000,0.96,-0.17,-0.156,-3.63,3.08,-1.43
508497.109000,0.954,-0.148,-0.104,-1.16,4.73,-2.11
508497.156000,1.012,-0.162,-0.088,-0.15,2.23,0.98
508497.203000,0.993,-0.18,-0.101,4.88,7.78,0.61
508497.250000,0.929,-0.172,-0.033,8.58,10.9,-6.07
508497.312000,0.94,-0.128,-0.052,13.18,1.68,-3.48
508497.359000,0.943,-0.2,0.009,20.63,-8.51,6.62
508497.406000,0.959,-0.196,0.049,29.18,-12.36,2.11
508497.453000,0.957,-0.254,0.121,39.16,-10.53,-7.57
508497.500000,0.985,-0.067,0.284,43.89,7.23,-27.5
508497.546000,0.987,-0.089,0.397,25.51,-5.58,-20.6
508497.593000,0.918,-0.253,0.274,22.06,-20.36,-6.62
508497.640000,1.021,-0.096,0.323,24.84,0.58,-33.75
508497.703000,0.819,-0.045,0.171,-25.3,-35.52,-5.62
508497.750000,0.943,-0.141,-0.281,-3.57,-2.53,-14.31
508497.796000,0.694,-0.211,-0.374,-33.75,-103.98,34.91
508497.843000,0.931,-0.16,-0.79,-21.67,-36.71,-14.71
508497.890000,0.72,0.05,-0.469,-48.68,-61.77,-23.35
508497.937000,0.66,0.2,-0.731,-40.01,-69.77,-5.01
508497.984000,0.642,0.136,-0.842,-64.33,-97.23,4.46
508498.031000,0.651,0.014,-0.917,-60.85,-70.47,21.52
508498.078000,0.963,-0.118,-1.128,-40.89,-48.25,-0.76
508498.125000,0.978,-0.227,-0.819,25.64,-0.79,42.54
508498.171000,0.818,0.04,-0.648,8.55,6.99,-7.93
508498.218000,0.899,0.016,-0.661,22.86,12.85,14.95
508498.265000,0.768,-0.016,-0.509,1.62,2.35,4.06
508498.312000,0.716,-0.06,-0.553,-7.54,-6.81,8.7
508498.359000,0.822,-0.083,-0.62,-4.15,0.34,-11.63
508498.406000,0.783,-0.022,-0.53,3.11,-2.14,12.15
508498.453000,0.76,-0.131,-0.547,5.92,3.54,13.79
508498.500000,0.78,-0.021,-0.513,-1.22,-2.32,-7.02
508498.546000,0.781,-0.064,-0.56,1.77,-5.34,16.17
508498.593000,0.749,-0.059,-0.539,-11.2,-6.62,-7.35
508498.640000,0.773,-0.055,-0.541,-9.0,-13.43,9.13
508498.687000,0.818,-0.1,-0.61,-4.88,-15.63,4.03
508498.734000,0.797,-0.041,-0.567,-0.27,-2.41,4.27
508498.781000,0.833,-0.096,-0.658,0.7,-8.85,9.55
508498.828000,0.784,-0.071,-0.561,-1.5,-1.19,2.9
508498.875000,0.796,-0.067,-0.637,-2.29,-7.11,7.35
508498.921000,0.761,-0.112,-0.566,-3.14,-1.86,7.26
508498.968000,0.764,-0.079,-0.619,-5.49,-2.99,4.82
508499.015000,0.767,-0.102,-0.601,-4.55,-2.72,3.91
508499.062000,0.767,-0.093,-0.586,-0.89,1.13,4.03
508499.109000,0.752,-0.085,-0.627,-0.18,-1.1,2.5
508499.156000,0.747,-0.115,-0.587,-4.27,-2.08,1.4
508499.203000,0.749,-0.086,-0.609,0.46,-0.31,2.69
508499.250000,0.763,-0.107,-0.615,-1.19,-3.33,4.33
508499.296000,0.755,-0.105,-0.62,-0.89,-3.63,3.02
508499.343000,0.755,-0.104,-0.607,0.82,-0.98,5.07
508499.390000,0.763,-0.098,-0.615,-2.14,-1.19,-1.56
508499.437000,0.779,-0.106,-0.654,2.56,-1.28,3.48
508499.484000,0.729,-0.103,-0.583,-2.14,-0.21,1.28
508499.531000,0.755,-0.098,-0.643,-1.1,-0.21,1.46
508499.578000,0.764,-0.114,-0.611,0.82,0.03,2.35
508499.640000,0.745,-0.101,-0.597,1.31,2.78,2.87
508499.687000,0.738,-0.091,-0.616,0.12,-0.09,4.61
508499.734000,0.761,-0.142,-0.624,-1.31,-1.4,2.59
508499.781000,0.759,-0.106,-0.616,2.93,-0.4,3.57
508499.828000,0.729,-0.125,-0.613,1.1,-0.03,4.52
508499.875000,0.761,-0.119,-0.638,3.6,0.55,0.85
508499.921000,0.755,-0.122,-0.617,3.66,-0.43,3.54
508499.968000,0.737,-0.108,-0.601,2.26,0.98,1.4
508500.015000,0.771,-0.115,-0.607,0.52,1.5,1.01
508500.078000,0.765,-0.146,-0.627,4.67,2.59,5.1
508500.140000,0.756,-0.142,-0.616,3.11,1.98,1.13
508500.187000,0.732,-0.118,-0.593,-1.95,1.4,-1.92
508500.234000,0.76,-0.127,-0.622,1.86,3.14,-1.04
508500.281000,0.741,-0.129,-0.614,0.03,0.03,1.71
508500.328000,0.745,-0.133,-0.609,1.56,2.04,1.37
508500.375000,0.763,-0.142,-0.624,-0.06,-1.65,0.61
508500.421000,0.739,-0.129,-0.593,0.76,-0.15,-0.34
508500.468000,0.744,-0.116,-0.609,-1.04,-2.11,-0.21
508500.515000,0.759,-0.138,-0.618,1.1,0.09,3.42
508500.562000,0.756,-0.143,-0.616,0.0,-2.11,1.01
508500.609000,0.755,-0.128,-0.62,0.7,1.37,0.79
508500.656000,0.76,-0.156,-0.624,1.68,0.24,1.89
508500.703000,0.751,-0.133,-0.603,0.85,0.61,1.01
508500.750000,0.754,-0.147,-0.616,-0.15,1.92,0.15
508500.796000,0.744,-0.139,-0.615,0.31,-0.27,-0.09
508500.843000,0.742,-0.136,-0.615,0.52,-0.27,2.66
508500.890000,0.742,-0.143,-0.61,0.12,-1.16,0.46
508500.937000,0.733,-0.138,-0.611,0.98,-0.85,1.98
508500.984000,0.744,-0.14,-0.617,-1.07,-1.77,-1.74
508501.031000,0.743,-0.138,-0.617,0.95,-1.62,2.81
508501.093000,0.751,-0.153,-0.642,1.04,-0.15,0.03
508501.140000,0.747,-0.15,-0.631,3.3,-1.98,5.52
508501.203000,0.738,-0.155,-0.617,0.27,1.31,-1.22
508501.250000,0.741,-0.152,-0.639,1.8,1.43,1.25
508501.296000,0.732,-0.128,-0.619,1.56,2.62,-0.31
508501.343000,0.744,-0.167,-0.686,6.9,-1.28,9.06
508501.390000,0.72,-0.145,-0.591,1.98,7.35,-6.62
508501.437000,0.758,-0.185,-0.682,7.48,-4.36,8.27
508501.484000,0.723,-0.199,-0.668,13.12,16.66,-9.77
508501.531000,0.692,-0.247,-0.861,19.47,-8.79,3.11
508501.578000,0.645,-0.218,-1.008,54.29,12.36,-8.85
508501.625000,0.479,-0.139,-1.35,67.51,1.28,1.46
508501.671000,0.524,-0.233,-1.299,105.87,39.7,-8.03
508501.718000,0.543,-0.083,-0.98,80.75,36.81,-36.29
508501.765000,0.709,-0.319,-0.593,63.26,23.19,-22.4
508501.812000,0.948,-0.135,-0.29,2.84,41.44,-40.96
508501.859000,0.907,-0.144,-0.111,7.02,78.95,-37.63
508501.906000,1.01,-0.025,0.057,-3.02,70.65,-53.35
508501.953000,0.834,-0.064,0.174,-41.35,51.88,-0.7
508502.000000,0.865,-0.484,-0.169,-23.44,19.32,24.23
508502.046000,0.853,-0.459,-0.134,-34.91,58.96,-4.76
508502.093000,0.942,-0.338,-0.048,12.36,44.59,-4.67
508502.140000,0.944,-0.129,0.008,-8.09,49.5,-20.23
508502.187000,0.896,-0.069,0.108,0.0,28.08,-2.84
508502.234000,0.88,-0.066,0.056,-45.23,15.99,-2.2
508502.281000,0.939,-0.165,-0.031,-23.44,-4.39,16.75
508502.328000,1.001,-0.332,-0.172,-18.04,3.81,4.43
508502.375000,0.998,-0.281,-0.155,2.2,10.38,3.85
508502.437000,0.983,-0.148,-0.081,2.44,15.96,-5.55
508502.484000,0.955,-0.179,-0.133,2.96,9.03,-0.4
508502.531000,0.919,-0.188,-0.116,2.08,9.16,0.31
508502.578000,0.942,-0.158,-0.126,-2.62,1.89,-4.39
508502.640000,0.96,-0.209,-0.142,4.12,6.71,4.94
508502.687000,0.951,-0.173,-0.123,-8.73,1.34,-9.34
508502.734000,0.97,-0.18,-0.143,-10.44,-0.46,-0.46
508502.781000,0.946,-0.175,-0.104,-16.82,2.47,-7.63
508502.828000,0.971,-0.168,-0.141,-14.28,1.43,-6.29
508502.875000,0.96,-0.17,-0.147,-4.97,4.09,-3.57
508502.921000,0.972,-0.144,-0.158,-11.75,2.56,-8.94
508502.968000,0.945,-0.173,-0.104,-5.31,1.83,1.16
508503.015000,0.942,-0.137,-0.115,-5.49,-0.46,-1.59
508503.062000,0.964,-0.161,-0.164,-0.46,-1.43,4.21
508503.109000,0.96,-0.153,-0.123,-4.88,1.1,-1.34
508503.156000,0.995,-0.168,-0.179,0.4,2.75,2.5
508503.203000,0.959,-0.185,-0.102,0.79,7.39,1.01
508503.250000,0.962,-0.147,-0.102,-2.84,8.64,-3.6
508503.296000,0.93,-0.18,-0.011,6.07,1.5,4.0
508503.343000,0.925,-0.176,0.022,7.39,-8.0,-1.46
508503.390000,0.94,-0.234,0.131,12.67,-8.42,-5.43
508503.437000,0.958,-0.115,0.213,24.57,-9.7,-19.1
508503.484000,0.859,-0.052,0.341,6.65,-16.24,-26.37
508503.531000,0.941,-0.216,0.152,19.81,-35.16,-9.28
508503.578000,0.921,-0.12,0.062,10.47,-24.93,-37.14
508503.625000,1.049,-0.185,0.012,28.5,-44.62,-4.82
508503.671000,0.884,0.017,0.001,-0.58,-26.86,-30.34
508503.718000,0.961,-0.065,-0.185,5.95,-60.73,9.19
508503.765000,0.85,-0.098,-0.374,-18.31,-59.54,15.5
508503.812000,0.921,-0.083,-0.512,-19.56,-48.59,10.47
508503.859000,0.859,-0.165,-0.646,-33.08,-52.28,19.1
508503.921000,0.707,0.097,-0.559,-54.51,-25.91,-14.98
508503.968000,0.799,-0.015,-0.838,-42.36,-79.59,39.28
508504.015000,0.662,0.018,-0.725,-44.5,-60.52,33.69
508504.062000,0.731,0.037,-0.877,-33.11,-16.21,8.51
508504.109000,0.705,0.013,-0.677,-38.45,-33.57,14.92
508504.156000,0.671,-0.02,-0.754,-23.71,-23.96,23.19
508504.203000,0.736,0.007,-0.796,-28.41,-34.73,10.99
508504.250000,0.808,-0.116,-0.817,3.85,-1.68,33.91
508504.296000,0.798,-0.202,-0.797,6.84,0.31,10.99
508504.343000,0.753,-0.034,-0.617,14.71,10.83,12.15
508504.390000,0.718,-0.096,-0.571,2.96,-0.34,3.75
508504.437000,0.704,-0.083,-0.584,10.28,11.78,11.75
508504.484000,0.684,-0.108,-0.555,-2.38,-5.28,-0.15
508504.531000,0.724,-0.131,-0.62,8.12,6.04,6.5
508504.578000,0.754,-0.12,-0.595,4.85,-4.79,-0.52
508504.625000,0.739,-0.122,-0.58,6.84,-1.59,11.72
508504.671000,0.78,-0.141,-0.64,-1.89,-3.75,0.34
508504.718000,0.752,-0.118,-0.62,1.71,-1.53,4.85
508504.765000,0.743,-0.141,-0.61,-0.82,-3.3,6.53
508504.812000,0.762,-0.17,-0.633,2.78,-3.94,7.51
508504.859000,0.732,-0.163,-0.618,1.1,-1.04,4.24
508504.906000,0.734,-0.158,-0.629,-0.64,-8.42,4.85
508504.953000,0.738,-0.189,-0.626,3.66,0.7,6.53
508505.000000,0.735,-0.182,-0.631,2.56,-0.89,0.24
508505.046000,0.745,-0.172,-0.647,2.99,0.21,4.09
508505.093000,0.737,-0.183,-0.619,3.23,2.04,1.92
508505.140000,0.74,-0.168,-0.621,-0.31,0.98,-2.84
508505.187000,0.736,-0.174,-0.632,1.1,-0.76,3.48
508505.234000,0.744,-0.174,-0.653,-2.5,-0.55,-3.48
508505.281000,0.73,-0.176,-0.609,1.5,2.01,1.13
508505.328000,0.719,-0.186,-0.635,1.07,0.27,0.0
508505.375000,0.724,-0.167,-0.614,1.16,2.04,-1.71
508505.421000,0.741,-0.172,-0.641,0.06,-2.75,-2.11
508505.468000,0.724,-0.156,-0.619,2.04,1.22,-0.49
508505.515000,0.742,-0.174,-0.634,-0.37,-0.92,-1.37
508505.562000,0.737,-0.17,-0.634,3.91,-1.74,3.27
508505.609000,0.715,-0.158,-0.58,-1.59,-0.76,-1.8
508505.656000,0.731,-0.161,-0.641,1.95,-1.22,2.38
508505.703000,0.728,-0.179,-0.633,-0.37,-0.67,-1.19
508505.750000,0.734,-0.177,-0.632,2.72,-1.83,2.84
508505.796000,0.733,-0.18,-0.626,1.19,-0.64,0.31
508505.843000,0.748,-0.183,-0.661,2.66,3.6,0.12
508505.890000,0.736,-0.177,-0.637,-0.61,-2.23,-0.98
508505.937000,0.74,-0.199,-0.611,3.94,6.68,1.92
508505.984000,0.74,-0.18,-0.653,1.56,2.04,1.07
508506.031000,0.725,-0.184,-0.611,1.53,4.46,0.79
508506.078000,0.73,-0.193,-0.626,0.46,2.53,-1.71
508506.125000,0.716,-0.177,-0.614,0.95,0.7,3.11
508506.171000,0.724,-0.204,-0.621,-0.64,-2.08,0.4
508506.218000,0.715,-0.167,-0.628,-2.9,1.62,-3.75
508506.265000,0.734,-0.194,-0.639,-1.22,-2.44,1.5
508506.312000,0.735,-0.178,-0.626,-1.68,-2.11,-2.53
508506.359000,0.732,-0.181,-0.643,-0.85,1.43,0.82
508506.406000,0.739,-0.178,-0.618,-0.4,-2.59,-0.27
508506.453000,0.716,-0.182,-0.629,0.46,0.52,1.65
508506.500000,0.73,-0.193,-0.621,0.95,-2.04,3.23
508506.546000,0.71,-0.179,-0.613,0.12,0.76,-1.04
508506.593000,0.726,-0.179,-0.66,0.34,-3.72,2.23
508506.640000,0.726,-0.189,-0.646,2.14,-1.5,2.75
508506.687000,0.734,-0.188,-0.63,0.82,-1.1,1.89
508506.734000,0.738,-0.196,-0.647,-0.31,1.4,1.16
508506.781000,0.732,-0.184,-0.64,1.22,1.25,1.62
508506.828000,0.73,-0.21,-0.638,-0.09,1.62,0.61
508506.875000,0.72,-0.186,-0.628,1.43,0.27,2.99
508506.921000,0.724,-0.2,-0.633,-0.49,0.95,0.67
508506.968000,0.721,-0.2,-0.629,0.92,-0.21,0.34
508507.015000,0.719,-0.178,-0.627,-0.61,2.38,-2.5
508507.062000,0.713,-0.199,-0.621,-0.37,-2.23,1.98
508507.109000,0.723,-0.192,-0.629,-1.4,-0.52,-1.19
508507.156000,0.725,-0.198,-0.641,1.8,-1.8,2.66
508507.203000,0.715,-0.21,-0.615,0.98,-0.4,-0.49
508507.250000,0.727,-0.197,-0.68,0.09,-2.41,-1.04
508507.296000,0.711,-0.183,-0.62,0.7,0.24,0.76
508507.343000,0.739,-0.208,-0.655,2.53,-1.31,2.41
508507.390000,0.721,-0.178,-0.637,1.98,1.5,-0.09
508507.437000,0.705,-0.248,-0.719,8.18,-3.51,7.05
508507.484000,0.695,-0.286,-0.837,18.68,6.2,-2.99
508507.531000,0.601,-0.311,-0.991,53.04,13.09,-12.91
508507.578000,0.565,-0.198,-1.235,78.89,30.4,-41.78
508507.625000,0.445,-0.174,-1.096,88.75,31.86,-37.72
508507.671000,0.618,-0.245,-0.98,101.5,19.96,-36.84
508507.718000,0.682,-0.206,-0.717,63.36,36.59,-57.13
508507.765000,0.925,-0.145,-0.456,30.43,25.67,-28.63
508507.812000,0.827,-0.191,-0.133,4.46,35.52,-39.49
508507.859000,0.985,-0.092,-0.169,-20.87,36.93,-46.11
508507.906000,0.852,-0.243,-0.085,-13.79,33.63,7.08
508507.953000,0.984,-0.27,-0.249,-15.96,38.15,-1.19
508508.000000,0.913,-0.19,-0.136,-36.01,64.88,-12.21
508508.046000,0.887,-0.156,-0.094,-18.1,50.23,-0.4
508508.093000,0.845,-0.152,0.021,-31.19,58.87,-0.06
508508.140000,0.928,-0.061,0.025,-40.86,32.29,-0.95
508508.187000,0.91,-0.074,0.003,-38.48,25.03,4.61
508508.250000,0.917,-0.238,-0.135,-31.19,8.39,13.0
508508.296000,0.967,-0.216,-0.155,-16.14,20.42,-7.66
508508.343000,1.0,-0.166,-0.089,2.9,23.93,-1.25
508508.390000,0.99,-0.078,-0.084,-4.85,24.84,-9.19
508508.437000,0.962,-0.124,-0.056,-4.24,13.55,3.05
508508.484000,0.941,-0.155,-0.104,-1.86,4.06,5.49
508508.531000,0.951,-0.141,-0.098,5.22,-1.13,0.98
508508.578000,0.985,-0.107,-0.151,-1.22,-1.07,-3.85
508508.625000,0.954,-0.134,-0.146,3.3,0.21,4.15
508508.671000,0.954,-0.132,-0.124,-2.96,4.76,0.4
508508.718000,0.955,-0.153,-0.139,-1.1,-3.6,3.27
508508.765000,0.958,-0.13,-0.145,-4.3,-4.46,-2.23
508508.812000,0.959,-0.128,-0.141,0.64,-5.13,-0.15
508508.859000,0.971,-0.139,-0.174,-1.56,-1.19,-1.4
508508.906000,0.957,-0.123,-0.126,4.82,0.79,0.67
508508.953000,0.955,-0.14,-0.147,-3.85,-4.15,1.07
508509.000000,0.953,-0.15,-0.103,2.87,-0.24,2.08
508509.046000,0.912,-0.162,-0.037,1.34,-4.67,0.61
508509.093000,0.937,-0.134,0.039,-0.67,-10.86,-0.12
508509.140000,0.91,-0.088,0.157,-11.69,1.01,-15.08
508509.187000,0.89,-0.147,0.21,-9.55,-16.11,-12.12
508509.234000,0.845,-0.076,0.297,-7.81,-8.51,-27.59
508509.281000,0.944,-0.223,0.19,-5.19,-42.66,-6.38
508509.328000,0.998,-0.014,0.107,6.68,-15.41,-27.44
508509.375000,0.963,-0.334,-0.185,-11.41,-99.86,27.83
508509.421000,1.0,-0.063,-0.298,-12.7,-12.18,-31.31
508509.468000,0.951,-0.024,-0.307,-1.1,-64.36,20.72
508509.515000,0.705,-0.017,-0.537,-32.84,-38.0,-5.52
508509.562000,0.869,-0.128,-1.069,2.69,-61.89,27.1
508509.609000,0.634,0.016,-0.472,-35.04,-8.91,-30.85
508509.656000,0.835,0.231,-1.137,-44.5,-68.82,-19.32
508509.703000,0.704,0.203,-0.799,-39.37,-40.35,24.78
508509.750000,0.763,0.1,-1.0,-39.06,-53.19,32.99
508509.796000,0.743,-0.193,-0.787,-12.45,-37.45,50.2
508509.843000,0.808,-0.193,-0.882,-8.7,-7.14,1.74
508509.890000,0.72,-0.054,-0.607,17.55,7.93,15.38
508509.937000,0.766,0.002,-0.688,9.52,4.06,-7.08
508509.984000,0.726,-0.069,-0.578,6.38,-3.05,10.28
508510.031000,0.764,0.024,-0.593,11.63,13.49,10.56
508510.078000,0.744,-0.109,-0.582,-1.1,-10.93,10.01
508510.125000,0.788,-0.047,-0.622,3.66,11.72,1.04
508510.171000,0.75,-0.079,-0.608,-0.24,3.97,2.72
508510.234000,0.753,-0.128,-0.532,4.52,8.06,11.47
508510.281000,0.792,-0.069,-0.606,-3.63,1.77,-0.89
508510.328000,0.783,-0.172,-0.573,-0.52,-1.86,9.03
508510.375000,0.773,-0.114,-0.594,-0.7,5.74,-5.46
508510.421000,0.774,-0.103,-0.556,1.86,-0.92,3.97
508510.468000,0.777,-0.13,-0.569,1.68,2.59,4.43
508510.515000,0.759,-0.104,-0.554,-3.45,-4.0,-1.07
508510.562000,0.802,-0.137,-0.588,5.01,2.62,7.08
508510.609000,0.764,-0.154,-0.572,-3.6,-3.54,-2.44
508510.656000,0.773,-0.132,-0.587,4.88,1.65,7.54
508510.703000,0.784,-0.142,-0.602,1.01,-2.81,3.51
508510.750000,0.77,-0.148,-0.589,1.5,-1.43,2.2
508510.796000,0.792,-0.133,-0.574,-4.43,-2.23,-2.08
508510.843000,0.779,-0.125,-0.601,1.37,-0.52,3.75
508510.890000,0.778,-0.144,-0.601,-3.3,-2.14,-1.68
508510.937000,0.778,-0.125,-0.607,-0.82,0.46,1.07
508510.984000,0.784,-0.139,-0.617,-0.46,-0.43,-2.01
508511.031000,0.77,-0.132,-0.587,2.32,1.43,1.13
508511.078000,0.749,-0.127,-0.562,0.27,2.41,0.18
508511.125000,0.769,-0.123,-0.577,-2.35,0.85,-3.57
508511.171000,0.776,-0.11,-0.593,-0.03,-1.89,0.4
508511.218000,0.775,-0.143,-0.596,0.34,-1.43,2.53
508511.265000,0.777,-0.133,-0.616,-0.43,0.06,-0.98
508511.312000,0.775,-0.127,-0.587,-1.5,-2.01,0.4
508511.359000,0.776,-0.14,-0.613,-0.76,-0.21,1.22
508511.406000,0.773,-0.137,-0.596,-1.46,2.08,-4.36
508511.453000,0.776,-0.137,-0.598,3.05,2.2,1.83
508511.500000,0.757,-0.12,-0.579,0.18,1.86,-1.04
508511.546000,0.764,-0.136,-0.578,0.98,1.01,-0.73
508511.593000,0.758,-0.124,-0.582,2.29,1.28,2.56
508511.640000,0.773,-0.125,-0.599,2.11,-0.64,2.01
508511.687000,0.77,-0.135,-0.593,1.01,1.28,-2.78
508511.734000,0.777,-0.111,-0.594,0.43,-1.74,1.07
508511.781000,0.766,-0.141,-0.594,0.09,-0.21,1.53
508511.828000,0.765,-0.131,-0.581,0.15,-0.64,-0.31
508511.875000,0.755,-0.125,-0.616,2.59,-0.4,1.98
508511.921000,0.704,-0.163,-0.658,6.2,-7.42,8.0
508511.968000,0.721,-0.314,-0.941,25.88,-6.04,4.49
508512.015000,0.674,-0.201,-1.111,82.89,19.41,-23.41
508512.062000,0.571,-0.098,-1.165,93.48,51.79,-24.48
508512.109000,0.542,-0.071,-1.083,103.06,46.36,-27.74
508512.156000,0.67,-0.049,-0.72,83.22,29.18,-20.26
508512.203000,0.843,-0.107,-0.358,35.16,22.68,-50.11
508512.250000,0.853,-0.23,-0.193,31.62,19.29,0.31
508512.296000,0.97,-0.297,-0.195,25.64,13.37,-23.93
508512.343000,0.972,-0.128,-0.172,-20.29,26.06,-26.52
508512.390000,0.974,-0.284,-0.162,23.01,22.25,18.89
508512.437000,0.966,-0.142,-0.239,-50.17,60.7,-22.95
508512.484000,0.946,-0.191,-0.169,-3.63,61.77,7.32
508512.531000,0.874,-0.217,-0.144,-26.76,84.44,-14.86
508512.578000,0.867,-0.186,0.075,-12.21,82.83,-11.32
508512.625000,0.836,-0.138,0.157,-23.77,76.2,-13.09
508512.671000,0.912,-0.083,0.184,-33.3,24.26,-17.52
508512.718000,0.917,-0.082,0.123,-49.1,-12.18,2.11
508512.765000,1.029,-0.204,-0.095,-24.17,-14.34,6.47
508512.812000,1.01,-0.13,-0.034,-29.27,7.42,-5.62
508512.859000,0.998,-0.105,-0.058,-13.06,6.01,1.22
508512.906000,0.933,-0.095,0.0,-16.11,3.88,-2.78
508512.968000,0.978,-0.149,-0.098,-7.11,-2.2,-0.79
508513.015000,0.99,-0.098,-0.101,1.34,-1.25,3.14
508513.062000,0.96,-0.118,-0.07,-3.91,0.18,-3.57
508513.109000,0.964,-0.103,-0.077,0.67,-6.32,-1.04
508513.156000,0.971,-0.111,-0.114,4.06,-5.25,1.04
508513.203000,0.991,-0.112,-0.183,8.21,-2.26,0.89
508513.250000,0.965,-0.106,-0.082,1.37,2.56,-0.85
508513.296000,0.982,-0.122,-0.146,3.75,-0.46,-1.89
508513.343000,0.984,-0.111,-0.116,2.96,1.19,-2.87
508513.390000,0.945,-0.103,-0.113,12.15,-6.16,6.96
508513.437000,0.971,-0.125,-0.139,-0.37,1.89,3.39
508513.484000,0.925,-0.129,-0.093,8.27,-1.62,2.14
508513.531000,0.948,-0.113,-0.098,-0.55,-4.39,0.73
508513.578000,0.943,-0.126,-0.108,6.87,-9.89,-0.09
508513.625000,0.954,-0.117,-0.021,8.36,-9.98,1.43
508513.671000,0.903,-0.101,0.181,12.91,-3.11,-2.96
508513.718000,0.752,0.041,0.418,-0.89,-17.03,-11.41
508513.765000,0.791,-0.001,0.326,-3.05,-51.39,-0.06
508513.812000,0.965,-0.13,0.124,-7.17,-49.96,1.01
508513.859000,1.088,-0.232,-0.011,-4.39,-30.03,-2.14
508513.906000,1.001,-0.211,0.051,-9.37,-9.19,-8.85
508513.953000,0.971,-0.375,-0.22,-7.97,-80.94,15.41
508514.000000,0.879,-0.096,-0.104,-15.59,-36.26,-30.09
508514.046000,0.851,-0.112,-0.493,-34.46,-101.05,13.21
508514.093000,0.822,-0.167,-0.63,-11.38,-67.05,-1.34
508514.140000,0.843,0.06,-0.764,-44.77,-46.05,-22.34
508514.187000,0.763,0.072,-0.955,-30.4,-53.96,11.81
508514.234000,0.586,0.073,-0.728,-38.21,-26.92,23.19
508514.281000,0.738,0.036,-1.001,-32.01,-40.89,18.46
508514.328000,0.571,0.06,-0.812,-18.83,-19.56,17.15
508514.375000,0.722,0.017,-0.887,-34.06,-32.01,9.61
508514.421000,0.741,-0.134,-0.737,17.06,15.23,27.13
508514.468000,0.777,-0.123,-0.773,9.98,-4.91,2.17
508514.531000,0.726,-0.047,-0.597,20.02,2.62,6.84
508514.578000,0.776,-0.012,-0.64,11.05,-2.32,-2.08
508514.625000,0.701,-0.013,-0.572,3.11,-9.61,9.8
508514.671000,0.769,-0.079,-0.648,7.14,-4.91,8.45
508514.718000,0.721,-0.106,-0.605,2.5,-2.47,12.85
508514.765000,0.763,-0.094,-0.631,2.11,-3.14,9.37
508514.812000,0.756,-0.135,-0.618,-2.35,-3.72,3.36
508514.859000,0.733,-0.153,-0.614,0.67,2.99,5.49
508514.906000,0.766,-0.152,-0.635,-2.29,-2.38,2.08
508514.953000,0.767,-0.126,-0.611,0.89,-0.95,2.35
508515.015000,0.752,-0.159,-0.595,1.25,4.67,4.12
508515.062000,0.747,-0.15,-0.611,2.11,4.61,3.08
508515.109000,0.72,-0.17,-0.591,0.12,2.69,2.38
508515.156000,0.735,-0.156,-0.605,1.68,0.52,2.78
508515.203000,0.727,-0.148,-0.61,-1.25,1.62,0.46
508515.250000,0.752,-0.145,-0.622,0.67,-3.81,4.49
508515.296000,0.749,-0.142,-0.605,0.4,-2.23,2.41
508515.343000,0.735,-0.144,-0.623,-0.24,-1.25,5.31
508515.390000,0.747,-0.148,-0.631,-1.1,-3.42,0.73
508515.437000,0.729,-0.137,-0.612,0.21,-1.74,6.35
508515.484000,0.735,-0.178,-0.632,0.52,-5.16,7.26
508515.531000,0.723,-0.18,-0.615,-0.21,-4.06,0.73
508515.578000,0.736,-0.162,-0.639,-3.88,-1.43,-3.48
508515.625000,0.737,-0.155,-0.653,1.16,-0.46,0.34
508515.671000,0.734,-0.148,-0.634,-1.34,-2.01,-0.4
508515.718000,0.75,-0.168,-0.633,-0.12,1.37,-0.37
508515.765000,0.739,-0.161,-0.661,0.06,2.69,-2.23
508515.828000,0.751,-0.182,-0.646,2.26,0.15,1.71
508515.875000,0.74,-0.174,-0.625,0.67,3.45,-3.54
508515.921000,0.757,-0.164,-0.643,5.04,3.91,1.04
508515.968000,0.731,-0.15,-0.626,4.15,2.29,0.27
508516.015000,0.739,-0.153,-0.615,3.72,3.69,2.11
508516.062000,0.741,-0.162,-0.618,5.04,1.95,2.17
508516.109000,0.715,-0.145,-0.615,-1.16,-2.41,-1.19
508516.156000,0.73,-0.158,-0.611,1.01,1.46,3.08
508516.203000,0.742,-0.156,-0.625,-4.52,-3.33,-1.68
508516.250000,0.758,-0.159,-0.639,-0.92,-1.56,0.89
508516.296000,0.744,-0.176,-0.632,-2.32,-2.29,0.52
508516.343000,0.746,-0.179,-0.627,0.24,1.34,0.73
508516.390000,0.737,-0.162,-0.612,0.67,0.82,1.46
508516.437000,0.721,-0.178,-0.628,-0.58,2.47,0.03
508516.484000,0.721,-0.154,-0.616,-1.56,-0.76,0.12
508516.531000,0.729,-0.179,-0.637,2.14,-1.37,5.68
508516.578000,0.725,-0.166,-0.617,-2.75,1.01,-3.42
508516.625000,0.74,-0.157,-0.635,2.01,0.34,2.84
508516.671000,0.741,-0.164,-0.626,-1.43,1.07,-1.83
508516.718000,0.74,-0.159,-0.652,-0.7,-1.28,1.43
508516.765000,0.741,-0.175,-0.611,-0.64,-0.55,1.34
508516.812000,0.73,-0.169,-0.647,-0.82,1.28,1.16
508516.859000,0.738,-0.17,-0.628,-0.85,-0.89,1.31
508516.921000,0.733,-0.179,-0.617,0.15,1.13,1.25
508516.968000,0.728,-0.167,-0.627,-0.92,2.29,-1.13
508517.015000,0.732,-0.172,-0.652,0.27,-2.62,1.92
508517.062000,0.74,-0.166,-0.638,1.04,2.99,-2.41
508517.109000,0.721,-0.181,-0.659,4.88,0.18,4.88
508517.156000,0.68,-0.214,-0.7,6.81,0.03,-1.22
508517.203000,0.662,-0.3,-0.922,17.18,-2.01,-5.58
508517.250000,0.481,-0.281,-1.041,42.6,13.61,-30.55
508517.296000,0.423,-0.145,-1.095,80.02,12.54,-7.51
508517.343000,0.449,0.009,-1.272,92.62,26.76,-35.28
508517.390000,0.64,-0.226,-0.67,118.81,31.56,-5.65
508517.437000,0.849,-0.133,-0.643,33.85,-1.74,-46.45
508517.484000,0.891,-0.215,-0.371,36.13,3.42,-5.68
508517.531000,0.906,-0.303,-0.3,19.44,33.17,-5.92
508517.578000,0.92,-0.17,-0.325,-18.46,19.47,-15.47
508517.625000,0.909,-0.316,-0.255,-4.09,32.72,-0.82
508517.671000,0.933,-0.232,-0.37,-24.51,46.36,-8.03
508517.718000,0.916,-0.328,-0.23,-19.84,82.64,-0.46
508517.765000,0.855,-0.289,-0.102,-29.66,94.3,-17.21
508517.828000,0.888,-0.294,-0.051,18.52,83.1,-22.98
508517.875000,0.945,-0.146,0.009,-26.4,44.25,-39.49
508517.921000,0.894,-0.047,0.053,-22.71,51.67,-37.81
508517.968000,0.885,-0.135,-0.025,-27.95,5.65,-7.75
508518.015000,0.874,-0.112,-0.03,-31.4,3.3,-12.79
508518.062000,0.946,-0.119,-0.083,-20.26,-3.39,6.04
508518.109000,0.993,-0.114,-0.194,-6.5,-7.29,12.54
508518.156000,0.99,-0.181,-0.139,-3.08,2.47,12.18
508518.203000,1.032,-0.176,-0.162,6.44,0.12,4.15
508518.250000,0.979,-0.158,-0.125,7.87,8.76,-3.39
508518.296000,0.997,-0.146,-0.151,-1.01,2.53,-9.16
508518.343000,0.938,-0.116,-0.113,4.12,5.31,-4.82
508518.390000,0.957,-0.178,-0.154,7.05,5.65,0.61
508518.437000,0.956,-0.115,-0.172,6.13,3.14,-1.46
508518.484000,0.948,-0.141,-0.113,-0.06,0.82,-1.37
508518.531000,0.931,-0.143,-0.13,6.38,-3.27,2.53
508518.578000,0.98,-0.153,-0.148,3.94,2.84,-0.21
508518.625000,0.95,-0.123,-0.109,0.06,-2.69,1.98
508518.671000,0.953,-0.145,-0.135,-9.13,-3.72,1.5
508518.718000,0.957,-0.155,-0.14,-6.81,-4.55,0.34
508518.765000,0.978,-0.121,-0.182,-9.22,-2.59,1.25
508518.812000,0.947,-0.15,-0.128,-11.44,-1.86,1.65
508518.859000,0.952,-0.148,-0.13,-10.32,-1.65,5.01
508518.906000,0.941,-0.209,-0.126,-3.45,0.12,-0.09
508518.953000,0.99,-0.129,-0.114,5.19,0.03,-1.77
508519.000000,0.956,-0.156,-0.068,7.51,-0.79,0.31
508519.046000,0.967,-0.167,-0.026,14.4,-1.1,1.34
508519.093000,0.896,-0.128,0.089,10.13,-3.97,-10.35
508519.140000,0.908,-0.08,0.201,-1.86,-29.27,-6.41
508519.187000,0.885,-0.03,0.245,6.41,-22.46,-18.56
508519.234000,0.854,-0.111,0.187,-28.93,-52.61,-4.67
508519.281000,1.002,-0.264,-0.107,4.15,-57.77,4.76
508519.328000,0.973,-0.171,-0.058,-9.89,-21.52,-23.65
508519.375000,1.017,-0.24,-0.183,34.94,-28.35,3.94
508519.421000,0.838,0.001,-0.255,-23.35,-13.03,-36.62
508519.468000,0.987,-0.192,-0.43,26.64,-67.48,34.61
508519.515000,0.59,0.006,-0.51,-91.31,-88.32,-19.53
508519.562000,0.949,-0.512,-1.103,21.7,-118.26,75.53
508519.609000,0.752,0.119,-0.532,-63.11,30.73,-86.37
508519.656000,0.625,0.245,-0.68,-32.53,-51.52,8.15
508519.703000,0.515,0.122,-0.82,-42.82,-9.64,19.07
508519.750000,0.664,0.162,-1.112,-48.31,-49.68,16.05
508519.796000,0.678,-0.044,-0.955,-19.23,-3.3,26.95
508519.843000,0.776,-0.138,-0.789,4.85,4.94,17.67
508519.890000,0.759,-0.027,-0.715,13.52,13.98,6.59
508519.937000,0.747,0.019,-0.608,-4.06,-5.77,-1.68
508519.984000,0.75,-0.093,-0.616,-0.06,-12.54,24.6
508520.031000,0.732,-0.02,-0.589,-7.69,0.46,-6.13
508520.078000,0.726,-0.043,-0.575,-1.89,-16.57,21.82
508520.125000,0.742,-0.06,-0.667,-6.56,-3.51,-0.67
508520.171000,0.721,-0.031,-0.619,1.4,-8.09,13.79
508520.218000,0.736,-0.069,-0.626,-1.22,-5.01,8.79
508520.265000,0.748,-0.056,-0.629,-5.62,-9.09,6.62
508520.312000,0.719,-0.138,-0.602,-2.26,-7.78,17.52
508520.359000,0.765,-0.138,-0.682,-1.13,-13.12,16.79
508520.406000,0.749,-0.108,-0.641,-1.28,0.31,1.56
508520.453000,0.736,-0.119,-0.652,-0.31,-0.67,4.52
508520.500000,0.753,-0.09,-0.651,-2.75,1.83,1.59
508520.546000,0.735,-0.108,-0.636,-2.81,-1.71,3.57
508520.593000,0.746,-0.104,-0.655,-3.48,0.15,2.26
508520.640000,0.731,-0.123,-0.634,1.28,-0.37,5.98
508520.687000,0.733,-0.112,-0.664,-2.32,-0.09,0.03
508520.734000,0.725,-0.136,-0.626,4.24,-3.63,9.98
508520.781000,0.719,-0.101,-0.651,-4.06,4.21,-3.85
508520.828000,0.735,-0.132,-0.638,1.28,-2.32,5.37
508520.875000,0.73,-0.105,-0.637,-0.76,3.48,-0.95
508520.921000,0.719,-0.137,-0.643,-1.31,-1.4,2.32
508520.968000,0.722,-0.133,-0.636,-1.43,-1.43,6.35
508521.015000,0.727,-0.126,-0.64,-2.44,-0.4,2.32
508521.062000,0.722,-0.111,-0.636,0.4,1.71,0.46
508521.109000,0.73,-0.116,-0.663,-3.51,-2.87,-1.43
508521.156000,0.718,-0.109,-0.632,-0.89,0.12,-2.35
508521.203000,0.723,-0.109,-0.653,1.04,-0.31,3.23
508521.250000,0.722,-0.125,-0.659,1.25,-0.03,0.58
508521.296000,0.714,-0.102,-0.639,-1.07,-0.49,-0.95
508521.343000,0.713,-0.111,-0.653,0.12,1.22,0.4
508521.390000,0.721,-0.09,-0.641,-2.32,-2.93,-0.18
508521.437000,0.724,-0.124,-0.639,1.43,0.37,4.33
508521.484000,0.73,-0.113,-0.667,-2.66,-1.19,-0.61
508521.531000,0.735,-0.116,-0.662,-0.82,-2.53,2.72
508521.578000,0.711,-0.122,-0.645,2.11,1.13,5.22
508521.625000,0.736,-0.13,-0.663,-1.56,-0.49,-0.52
508521.671000,0.723,-0.132,-0.642,2.44,-1.89,4.46
508521.718000,0.713,-0.136,-0.676,-0.31,3.45,-1.22
508521.765000,0.725,-0.122,-0.663,0.21,-3.39,2.59
508521.812000,0.703,-0.122,-0.638,-1.13,1.89,-0.67
508521.859000,0.725,-0.118,-0.68,1.98,-1.25,2.47
508521.906000,0.698,-0.109,-0.651,-1.89,-1.89,0.67
508521.953000,0.714,-0.121,-0.644,-1.53,-1.04,0.0
508522.000000,0.714,-0.115,-0.663,-1.5,-0.52,-0.79
508522.046000,0.704,-0.125,-0.65,-0.18,-0.7,1.1
508522.093000,0.721,-0.136,-0.676,0.06,-1.62,-0.37
508522.140000,0.704,-0.119,-0.653,0.09,0.03,1.37
508522.187000,0.737,-0.13,-0.689,-2.17,-2.59,-2.59
508522.234000,0.698,-0.125,-0.63,1.37,0.34,4.58
508522.281000,0.717,-0.13,-0.672,0.46,1.89,0.92
508522.328000,0.701,-0.129,-0.679,-0.79,-2.38,2.29
508522.375000,0.711,-0.118,-0.675,1.86,-0.82,2.38
508522.421000,0.685,-0.113,-0.661,2.26,2.2,2.62
508522.468000,0.642,-0.133,-0.799,8.91,-3.05,4.09
508522.515000,0.513,-0.246,-0.841,12.09,7.23,-16.57
508522.562000,0.631,-0.283,-1.106,61.68,-2.75,-18.59
508522.609000,0.534,-0.151,-1.365,96.04,39.34,-39.25
508522.656000,0.464,-0.012,-1.071,73.18,19.65,-36.07
508522.703000,0.628,-0.15,-0.999,99.98,26.61,-32.99
508522.750000,0.649,-0.126,-0.781,59.08,11.41,-29.05
508522.796000,0.866,-0.254,-0.586,62.07,28.23,-39.46
508522.843000,0.865,-0.006,-0.396,23.68,56.46,-57.25
508522.890000,0.858,-0.233,-0.127,5.16,41.96,-11.69
508522.937000,0.986,-0.076,-0.174,-39.74,62.96,-23.71
508522.984000,0.914,-0.235,-0.128,-19.65,59.33,21.21
508523.031000,0.806,-0.324,-0.091,-22.46,80.81,6.1
508523.093000,0.892,-0.122,0.072,-24.38,75.66,-15.99
508523.140000,0.874,0.013,0.19,-29.6,66.1,-16.57
508523.187000,0.876,-0.068,0.022,-52.1,22.13,9.43
508523.234000,0.958,-0.199,-0.111,-35.4,4.36,8.33
508523.281000,0.969,-0.143,-0.071,-37.26,6.59,-2.38
508523.328000,1.032,-0.158,-0.14,-16.82,-0.92,8.48
508523.375000,0.968,-0.135,-0.124,-20.11,8.48,2.87
508523.421000,0.985,-0.129,-0.141,-4.88,6.01,4.97
508523.468000,0.923,-0.122,-0.064,-14.22,3.51,4.94
508523.515000,0.981,-0.084,-0.175,-16.24,-6.26,4.64
508523.562000,0.949,-0.152,-0.127,-17.03,-21.97,7.32
508523.609000,0.985,-0.151,-0.335,1.89,-13.92,4.52
508523.656000,0.934,-0.154,-0.162,1.22,-4.58,-4.36
508523.703000,0.95,-0.151,-0.223,8.03,3.97,-4.61
508523.750000,0.929,-0.11,-0.191,9.64,-7.45,-2.23
508523.796000,0.925,-0.126,-0.2,9.25,-8.39,2.23
508523.843000,0.968,-0.174,-0.261,12.73,-11.17,-0.09
508523.890000,0.953,-0.123,-0.215,14.44,2.35,-6.78
508523.937000,0.957,-0.129,-0.207,14.98,-7.84,3.05
508523.984000,0.908,-0.136,-0.165,18.13,5.37,-1.37
508524.031000,0.893,-0.154,-0.09,18.43,-14.25,4.88
508524.078000,0.918,-0.141,-0.086,6.13,-17.18,-1.43
508524.125000,1.002,-0.145,-0.088,16.63,-27.28,-2.01
508524.171000,0.945,0.079,0.074,-7.39,13.31,-26.31
508524.218000,0.863,-0.205,-0.089,-13.95,-60.58,26.49
508524.281000,0.915,-0.067,0.045,-11.26,9.8,-22.8
508524.328000,1.015,-0.29,-0.029,4.7,-63.33,25.88
508524.375000,0.94,-0.168,-0.108,-5.55,7.17,-11.63
508524.421000,0.877,-0.179,-0.069,0.64,-30.06,24.84
508524.468000,0.694,-0.288,-0.363,-32.81,-83.13,42.21
508524.515000,0.889,-0.286,-0.709,-31.07,-81.24,35.1
508524.562000,0.588,-0.191,-0.697,-42.85,-66.44,5.16
508524.609000,0.643,-0.058,-1.014,-47.3,-55.85,-0.43
508524.656000,0.59,-0.035,-0.974,-63.17,-49.65,-3.2
508524.703000,0.683,-0.125,-1.235,-16.36,-18.28,19.26
508524.750000,0.604,-0.113,-0.893,-35.58,7.66,-27.25
508524.796000,0.706,-0.06,-0.922,11.75,3.81,6.74
508524.843000,0.822,-0.189,-0.807,12.21,-9.77,13.49
508524.890000,0.751,-0.096,-0.678,28.47,11.93,9.83
508524.937000,0.711,0.052,-0.708,-3.11,-8.85,-17.79
508524.984000,0.747,-0.038,-0.658,-1.62,-5.89,7.35
508525.031000,0.766,-0.057,-0.724,4.43,2.47,-3.02
508525.078000,0.645,-0.069,-0.579,2.84,-1.07,11.84
508525.125000,0.757,-0.14,-0.74,9.86,2.17,8.33
508525.171000,0.677,-0.085,-0.549,3.08,-2.81,3.69
508525.218000,0.736,-0.129,-0.717,18.95,9.22,15.35
508525.265000,0.719,-0.184,-0.609,3.2,-2.26,5.52
508525.312000,0.756,-0.131,-0.695,5.43,-0.46,4.3
508525.359000,0.738,-0.208,-0.637,4.39,0.21,2.93
508525.406000,0.716,-0.134,-0.625,3.3,-0.85,2.2
508525.468000,0.73,-0.203,-0.667,3.45,-3.14,6.56
508525.515000,0.699,-0.209,-0.605,-1.8,-6.41,-2.01
508525.562000,0.715,-0.165,-0.628,5.58,5.8,0.95
508525.609000,0.721,-0.17,-0.625,-2.08,-4.64,-1.43
508525.656000,0.717,-0.174,-0.629,-1.77,2.23,2.62
508525.703000,0.736,-0.177,-0.649,-5.65,-4.09,-0.4
508525.750000,0.716,-0.185,-0.646,-2.11,3.17,1.68
508525.796000,0.719,-0.192,-0.637,-3.3,-5.13,0.24
508525.843000,0.71,-0.186,-0.645,-2.78,0.52,1.31
508525.890000,0.704,-0.188,-0.638,-2.29,-2.2,2.17
508525.937000,0.714,-0.175,-0.642,-3.81,-0.82,0.0
508525.984000,0.72,-0.161,-0.648,-2.29,-2.59,0.31
508526.031000,0.714,-0.165,-0.649,1.28,2.01,0.58
508526.078000,0.706,-0.15,-0.663,-2.32,-1.34,-1.04
508526.125000,0.722,-0.185,-0.669,2.32,0.21,4.61
508526.171000,0.709,-0.169,-0.634,-2.99,-0.7,-2.38
508526.218000,0.717,-0.177,-0.658,2.2,0.55,3.78
508526.265000,0.697,-0.16,-0.639,-1.68,-0.58,0.67
508526.312000,0.707,-0.198,-0.661,1.83,-0.46,7.9
508526.359000,0.709,-0.177,-0.66,-0.85,-1.34,-0.79
508526.406000,0.709,-0.173,-0.662,-0.03,0.89,0.79
508526.453000,0.704,-0.189,-0.656,1.59,-0.37,4.18
508526.500000,0.72,-0.177,-0.651,2.08,2.47,0.27
508526.546000,0.7,-0.172,-0.636,-1.53,0.89,-1.22
508526.593000,0.72,-0.21,-0.685,2.93,2.87,4.52
508526.640000,0.694,-0.192,-0.645,-1.43,3.66,-3.3
508526.687000,0.707,-0.16,-0.652,2.59,3.17,4.18
508526.734000,0.695,-0.219,-0.643,1.98,2.84,1.1
508526.781000,0.689,-0.163,-0.654,-0.79,2.11,-4.79
508526.828000,0.713,-0.172,-0.664,3.54,0.82,2.81
508526.875000,0.691,-0.18,-0.644,-0.06,2.14,-0.34
508526.921000,0.714,-0.174,-0.666,1.01,1.37,-0.15
508526.968000,0.674,-0.191,-0.638,3.33,0.43,0.09
508527.015000,0.702,-0.13,-0.622,2.17,9.92,-14.22
508527.062000,0.667,-0.119,-0.644,9.03,-2.87,6.13
508527.109000,0.689,-0.348,-0.904,25.91,-6.47,4.73
508527.156000,0.609,-0.318,-1.068,73.21,3.42,-15.2
508527.203000,0.491,-0.303,-1.303,89.02,12.79,-26.37
508527.250000,0.388,-0.209,-1.075,84.54,9.25,-41.9
508527.296000,0.554,-0.359,-0.955,92.41,5.01,-35.49
508527.343000,0.636,-0.163,-0.754,58.87,9.34,-76.6
508527.390000,0.778,-0.161,-0.542,34.12,26.18,-35.92
508527.437000,0.902,-0.134,-0.274,19.59,46.11,-38.88
508527.484000,0.868,-0.191,-0.281,-21.85,44.65,-21.52
508527.531000,0.969,-0.24,-0.291,-37.02,55.97,-15.11
508527.578000,0.949,-0.341,-0.23,-54.14,87.74,-19.71
508527.625000,0.85,-0.279,0.043,-26.67,105.41,-25.09
508527.671000,0.924,-0.146,0.17,-38.03,91.95,-42.3
508527.718000,0.947,0.11,0.121,-28.66,78.25,-34.85
508527.765000,0.836,0.052,0.244,-53.22,46.88,-17.64
508527.812000,0.829,-0.068,0.004,-50.45,18.74,-5.49
508527.859000,0.932,-0.05,-0.068,-25.73,-7.78,-9.58
508527.906000,0.954,0.027,-0.072,-22.89,6.68,1.62
508527.953000,0.971,0.008,-0.103,-20.87,-12.09,18.89
508528.000000,0.978,-0.127,-0.121,-27.13,-5.49,9.7
508528.046000,1.02,-0.073,-0.192,-13.12,-18.62,18.46
508528.093000,0.988,-0.113,-0.145,-11.81,-4.15,6.84
508528.140000,1.005,-0.09,-0.196,-2.08,-12.45,8.12
508528.187000,0.984,-0.08,-0.158,0.82,-4.03,1.04
508528.234000,0.983,-0.064,-0.163,-0.79,3.51,0.82
508528.281000,0.947,-0.049,-0.156,4.27,-5.4,8.51
508528.328000,0.941,-0.087,-0.152,-0.18,-5.98,10.9
508528.375000,0.989,-0.11,-0.187,6.68,-11.32,7.63
508528.421000,0.956,-0.143,-0.194,1.28,0.92,8.18
508528.468000,0.989,-0.091,-0.207,5.37,0.49,2.2
508528.515000,0.93,-0.113,-0.154,1.13,1.34,5.13
508528.562000,0.947,-0.121,-0.183,0.12,-2.78,1.04
508528.609000,0.917,-0.123,-0.194,11.11,-3.54,11.72
508528.656000,0.985,-0.123,-0.252,4.33,-2.9,4.09
508528.703000,0.947,-0.17,-0.2,6.04,-5.16,2.47
508528.750000,0.965,-0.13,-0.198,6.13,0.4,-0.95
508528.796000,0.935,-0.162,-0.144,9.16,-0.18,1.77
508528.843000,0.952,-0.145,-0.104,14.71,0.0,-1.46
508528.890000,0.979,-0.135,-0.052,17.12,-1.62,-5.1
508528.937000,0.989,-0.134,0.138,17.61,-0.95,-13.46
508528.984000,0.981,-0.006,0.349,17.98,17.55,-29.36
508529.031000,0.912,-0.152,0.28,12.05,-3.69,-13.98
508529.078000,0.928,-0.078,0.251,7.63,0.27,-23.87
508529.125000,0.934,-0.101,0.204,30.64,-1.98,2.56
508529.171000,0.844,0.02,0.116,0.92,-4.73,-9.77
508529.218000,0.943,-0.321,-0.258,15.84,-67.05,44.65
508529.265000,0.615,-0.017,-0.049,-33.36,-78.13,-6.81
508529.312000,0.991,-0.339,-0.958,-31.1,-129.92,29.15
508529.359000,0.734,0.078,-0.665,-55.7,-10.8,-86.12
508529.406000,0.749,0.373,-1.079,-75.72,-108.8,-13.21
508529.453000,0.675,0.144,-1.161,-60.49,-76.63,55.12
508529.500000,0.722,-0.211,-1.047,-44.43,-68.33,74.8
508529.546000,0.84,-0.338,-0.963,-1.53,-16.36,37.84
508529.593000,0.756,-0.165,-0.758,8.48,12.48,-9.28
508529.640000,0.724,-0.004,-0.642,28.6,16.97,10.53
508529.687000,0.728,-0.091,-0.555,10.19,4.06,-1.71
508529.734000,0.758,0.052,-0.625,10.35,6.71,-1.5
508529.781000,0.807,-0.015,-0.593,-1.04,-7.26,-7.39
508529.828000,0.826,-0.09,-0.634,11.38,-1.04,22.43
508529.875000,0.75,-0.08,-0.551,13.09,6.71,4.43
508529.921000,0.792,-0.026,-0.61,6.5,-10.9,17.4
508529.968000,0.779,-0.181,-0.549,3.91,-0.12,27.44
508530.015000,0.784,-0.108,-0.563,-8.15,-7.39,-4.58
508530.062000,0.74,-0.121,-0.555,-2.01,-0.24,15.84
508530.109000,0.78,-0.201,-0.571,-7.14,-9.4,-0.95
508530.156000,0.781,-0.158,-0.62,-4.39,-0.18,1.37
508530.203000,0.754,-0.166,-0.528,-6.53,-2.01,3.51
508530.250000,0.805,-0.156,-0.633,0.0,5.98,-0.34
508530.296000,0.801,-0.158,-0.612,-4.76,-6.87,-1.71
508530.343000,0.766,-0.132,-0.538,-4.61,1.1,1.8
508530.390000,0.789,-0.168,-0.627,-3.85,-2.81,9.13
508530.437000,0.752,-0.19,-0.573,-5.65,-1.62,-1.68
508530.484000,0.767,-0.121,-0.564,-4.21,-1.19,1.68
508530.531000,0.761,-0.191,-0.606,2.78,-1.86,7.75
508530.578000,0.75,-0.161,-0.586,0.64,0.76,0.89
508530.625000,0.764,-0.172,-0.579,0.73,-1.13,2.38
508530.671000,0.774,-0.16,-0.623,1.65,-2.56,4.24
508530.718000,0.77,-0.175,-0.567,-1.31,-4.46,0.49
508530.765000,0.767,-0.14,-0.6,2.87,3.08,3.91
508530.812000,0.752,-0.15,-0.599,1.56,-3.23,3.91
508530.859000,0.758,-0.227,-0.618,1.83,-1.56,3.63
508530.906000,0.734,-0.155,-0.581,0.98,2.38,-3.81
508530.953000,0.766,-0.175,-0.624,1.34,-1.31,-2.69
508531.000000,0.728,-0.171,-0.582,0.06,-1.53,0.12
508531.046000,0.771,-0.155,-0.641,-1.68,-7.42,-1.19
508531.093000,0.759,-0.148,-0.603,2.5,0.64,6.68
508531.140000,0.756,-0.185,-0.611,-0.43,-4.12,5.1
508531.187000,0.76,-0.161,-0.595,-3.14,-0.12,-2.08
508531.234000,0.767,-0.192,-0.634,2.78,-2.23,6.81
508531.281000,0.762,-0.19,-0.618,-1.28,-1.74,-1.71
508531.343000,0.738,-0.184,-0.574,1.62,2.11,2.75
508531.390000,0.75,-0.166,-0.623,-0.18,5.86,-0.67
508531.437000,0.746,-0.189,-0.612,-1.77,0.15,1.01
508531.484000,0.743,-0.18,-0.59,-1.31,2.17,-2.35
508531.531000,0.733,-0.191,-0.591,0.09,2.69,0.64
508531.578000,0.736,-0.183,-0.599,-3.6,-2.53,-1.04
508531.625000,0.738,-0.168,-0.579,0.61,0.58,-2.99
508531.671000,0.76,-0.175,-0.619,-0.76,-2.44,1.92
508531.718000,0.772,-0.215,-0.637,1.83,-0.7,0.61
508531.765000,0.755,-0.169,-0.601,3.14,2.56,-1.43
508531.812000,0.756,-0.166,-0.619,0.64,-0.31,-0.49
508531.859000,0.752,-0.178,-0.602,1.95,-0.58,5.28
508531.906000,0.732,-0.18,-0.605,1.1,1.07,-1.01
508531.953000,0.714,-0.146,-0.593,-0.37,0.58,-0.24
508532.000000,0.724,-0.21,-0.64,3.85,-7.97,6.35
508532.046000,0.7,-0.318,-0.825,14.92,-13.82,6.01
508532.093000,0.484,-0.46,-0.895,40.62,-15.08,-18.37
508532.140000,0.483,-0.168,-1.451,69.77,28.29,-59.66
508532.187000,0.376,-0.162,-1.441,113.9,17.24,-35.1
508532.234000,0.431,-0.262,-1.18,109.47,44.92,-28.11
508532.281000,0.642,-0.245,-0.737,110.48,31.8,-50.05
508532.328000,0.844,-0.222,-0.138,64.3,48.34,-50.2
508532.375000,1.018,0.058,0.174,55.79,59.85,-71.57
508532.421000,1.008,0.128,0.243,-10.62,30.73,-18.52
508532.468000,0.978,-0.009,0.013,-26.86,-4.52,26.64
508532.515000,1.12,-0.144,-0.197,-38.42,49.35,0.34
508532.578000,0.966,-0.184,-0.097,-57.92,112.49,-22.58
508532.625000,0.908,-0.115,0.063,-65.52,89.91,-20.97
508532.671000,0.838,-0.13,0.184,-67.2,69.43,-12.63
508532.718000,0.866,-0.236,-0.018,-61.49,14.98,6.93
508532.765000,0.961,-0.21,-0.062,-34.67,7.51,1.68
508532.812000,0.958,-0.148,-0.078,-28.69,4.82,0.0
508532.859000,0.99,-0.155,-0.104,-20.51,1.56,2.29
508532.906000,0.908,-0.163,-0.056,-11.99,2.23,2.04
508532.953000,0.978,-0.166,-0.139,-7.26,-4.18,-0.12
508533.000000,0.944,-0.165,-0.098,3.17,-2.62,5.1
508533.046000,0.966,-0.172,-0.133,1.16,-8.58,3.48
508533.093000,0.951,-0.164,-0.137,4.61,-7.48,2.75
508533.140000,0.984,-0.167,-0.182,2.32,-3.97,1.62
508533.187000,0.969,-0.152,-0.17,0.15,-7.6,5.1
508533.234000,0.959,-0.146,-0.172,-4.39,-9.06,5.34
508533.281000,0.929,-0.215,-0.193,2.59,-17.12,1.65
508533.328000,0.95,-0.184,-0.214,-0.58,-2.75,-5.74
508533.375000,0.93,-0.171,-0.212,4.21,-9.06,-3.11
508533.421000,0.945,-0.155,-0.18,-3.02,-2.41,-3.6
508533.468000,0.949,-0.166,-0.221,-1.4,0.92,-1.1
508533.515000,0.933,-0.184,-0.234,-1.22,-2.14,0.95
508533.562000,0.953,-0.206,-0.219,1.56,-0.15,0.15
508533.609000,0.952,-0.132,-0.221,-1.65,5.62,-6.26
508533.656000,0.931,-0.172,-0.189,0.92,1.62,2.17
508533.703000,0.909,-0.156,-0.156,0.21,-5.34,4.3
508533.765000,0.906,-0.196,-0.103,3.88,-5.62,0.64
508533.812000,0.947,-0.219,-0.043,20.23,-17.88,8.48
508533.859000,0.923,-0.291,0.014,38.45,-2.75,4.97
508533.906000,0.918,-0.206,0.154,43.95,-3.48,-21.18
508533.953000,0.919,-0.068,0.362,65.89,33.6,-45.53
508534.000000,0.848,0.11,0.573,21.7,19.01,-72.63
508534.046000,0.961,-0.105,0.327,6.87,-35.37,-15.69
508534.093000,1.083,0.033,0.111,30.76,20.66,-40.28
508534.140000,0.889,0.085,0.325,-34.55,-16.54,-37.48
508534.187000,1.016,0.153,-0.227,-23.9,-50.02,-14.83
508534.234000,0.764,0.127,-0.545,-51.09,-134.8,53.5
508534.281000,0.532,0.29,-1.164,-107.46,-99.83,19.07
508534.328000,0.346,-0.036,-2.144,-106.81,-233.71,207.62
508534.375000,1.167,-1.395,-1.304,-22.37,-34.03,126.68
508534.421000,0.931,-0.35,-1.11,47.7,65.43,-41.23
508534.468000,0.499,0.304,-0.312,17.64,30.82,-43.28
508534.515000,0.848,-0.104,-0.678,13.31,2.56,31.65
508534.562000,0.777,-0.096,-0.467,5.01,10.13,-1.13
508534.609000,0.785,-0.106,-0.566,6.65,8.94,16.27
508534.656000,0.772,-0.092,-0.487,-6.59,-4.79,1.22
508534.703000,0.82,-0.155,-0.498,3.45,3.42,18.92
508534.750000,0.816,-0.247,-0.584,-3.88,-0.09,7.29
508534.796000,0.788,-0.118,-0.473,0.85,8.55,0.55
508534.843000,0.826,-0.271,-0.532,-4.73,-2.66,10.38
508534.890000,0.799,-0.162,-0.469,2.04,7.45,-4.61
508534.937000,0.811,-0.227,-0.515,-0.31,1.04,15.93
508534.984000,0.796,-0.255,-0.475,0.79,2.56,-2.17
508535.031000,0.783,-0.22,-0.521,-0.67,0.58,3.17
508535.078000,0.819,-0.291,-0.434,6.35,8.12,-1.16
508535.125000,0.816,-0.209,-0.568,6.84,1.86,-3.69
508535.171000,0.77,-0.227,-0.419,1.01,8.06,-2.99
508535.218000,0.84,-0.183,-0.548,0.4,-4.85,-9.46
508535.265000,0.804,-0.207,-0.496,2.23,-10.1,6.62
508535.312000,0.832,-0.193,-0.522,-2.78,-9.31,-4.76
508535.359000,0.819,-0.179,-0.486,-4.58,-8.7,4.18
508535.406000,0.82,-0.214,-0.539,6.81,-5.37,2.69
508535.453000,0.836,-0.186,-0.606,7.08,-2.29,1.53
508535.500000,0.778,-0.233,-0.482,5.25,-0.79,3.81
508535.546000,0.829,-0.22,-0.549,2.9,-1.37,0.61
508535.593000,0.789,-0.25,-0.487,-1.62,-0.24,-1.71
508535.640000,0.812,-0.208,-0.538,-6.04,0.79,-2.41
508535.687000,0.801,-0.244,-0.524,-2.72,-1.74,-1.07
508535.734000,0.799,-0.203,-0.53,0.64,0.98,-2.96
508535.781000,0.799,-0.199,-0.515,1.37,0.64,1.28
508535.828000,0.79,-0.188,-0.529,0.43,-1.37,2.53
508535.875000,0.799,-0.209,-0.523,-2.11,-1.59,1.28
508535.921000,0.787,-0.224,-0.545,-0.31,-4.52,5.98
508535.968000,0.798,-0.221,-0.524,-0.58,0.09,1.77
508536.015000,0.81,-0.23,-0.556,-1.16,-2.59,3.33
508536.062000,0.802,-0.222,-0.51,1.28,1.37,1.19
508536.109000,0.81,-0.24,-0.537,-0.06,2.41,2.23
508536.156000,0.794,-0.218,-0.518,-2.84,-0.89,1.22
508536.218000,0.778,-0.236,-0.501,-0.76,2.75,-0.06
508536.265000,0.775,-0.225,-0.523,-1.43,-1.07,0.15
508536.312000,0.793,-0.222,-0.547,0.31,-0.89,1.92
508536.359000,0.796,-0.225,-0.54,-1.68,-1.83,-2.17
508536.406000,0.799,-0.212,-0.542,-0.15,-1.92,2.96
508536.453000,0.785,-0.235,-0.528,-2.53,-2.35,3.57
508536.500000,0.798,-0.218,-0.539,-0.98,2.62,-1.8
508536.546000,0.785,-0.233,-0.535,-0.46,-2.69,3.81
508536.593000,0.784,-0.225,-0.565,-1.1,0.55,0.12
508536.640000,0.774,-0.246,-0.509,0.7,-0.43,5.58
508536.687000,0.789,-0.233,-0.565,1.53,1.68,1.46
508536.734000,0.795,-0.227,-0.548,0.55,-1.89,4.24
508536.781000,0.777,-0.253,-0.53,0.58,1.59,3.02
508536.828000,0.794,-0.255,-0.54,0.64,-2.72,4.39
508536.875000,0.773,-0.24,-0.529,1.1,2.81,2.17
508536.921000,0.78,-0.249,-0.523,-0.06,-0.61,1.04
508536.968000,0.771,-0.242,-0.56,2.59,1.04,5.8
508537.015000,0.762,-0.262,-0.551,1.95,-4.61,-0.12
508537.062000,0.767,-0.235,-0.557,1.13,2.56,-9.19
508537.109000,0.746,-0.324,-0.622,8.21,-11.11,3.05
508537.156000,0.698,-0.29,-0.681,30.98,16.11,-26.0
508537.218000,0.772,-0.157,-0.75,38.94,5.19,-27.22
508537.265000,0.785,-0.401,-0.824,96.1,0.64,31.1
508537.312000,0.776,-0.285,-0.963,43.64,12.76,-40.96
508537.359000,0.681,-0.28,-0.793,59.88,20.17,-10.44
508537.406000,0.733,-0.399,-0.914,53.96,17.21,-16.79
508537.453000,0.717,-0.32,-0.595,54.72,42.6,-6.81
508537.500000,0.795,-0.44,-0.378,46.33,21.15,-4.52
508537.546000,0.876,-0.349,-0.295,-1.95,51.64,-21.52
508537.593000,0.842,-0.406,0.071,47.98,55.88,-10.65
508537.640000,0.971,-0.227,-0.163,-0.52,39.28,-29.63
508537.687000,0.817,-0.228,0.135,13.09,81.39,0.4
508537.734000,0.976,-0.16,0.19,-30.12,25.03,3.11
508537.781000,1.028,-0.214,-0.048,-36.53,8.48,7.78
508537.828000,0.994,-0.375,-0.112,5.98,65.37,11.72
508537.875000,0.854,-0.466,0.055,-6.07,59.42,-10.16
508537.921000,0.802,-0.127,0.198,0.95,70.16,-37.9
508537.968000,0.79,-0.055,0.308,-23.04,14.47,-5.95
508538.015000,0.886,-0.164,0.078,-33.57,-15.87,7.05
508538.062000,0.999,-0.296,-0.034,-36.01,-18.22,-0.27
508538.109000,0.967,-0.336,0.03,-18.34,3.08,11.75
508538.156000,0.982,-0.264,0.047,-17.09,0.18,5.34
508538.203000,0.929,-0.264,0.067,-12.45,-2.75,13.67
508538.250000,0.974,-0.325,-0.024,-3.57,-6.35,11.54
508538.296000,0.979,-0.364,-0.014,-0.67,-4.94,3.85
508538.343000,0.995,-0.303,-0.077,7.51,0.43,-4.88
508538.390000,0.95,-0.302,-0.053,-1.98,0.64,-1.43
508538.437000,0.964,-0.316,-0.059,6.29,2.2,-6.2
508538.484000,0.9,-0.29,-0.033,2.96,1.59,-3.85
508538.531000,0.908,-0.298,-0.053,10.99,-4.09,1.5
508538.578000,0.899,-0.248,-0.02,1.04,-1.77,-3.85
508538.625000,0.941,-0.303,-0.082,8.33,-7.6,9.43
508538.671000,0.931,-0.305,-0.06,-4.49,-4.09,-4.12
508538.718000,0.934,-0.309,-0.1,9.09,0.24,8.73
508538.765000,0.94,-0.319,-0.043,4.12,-0.85,0.89
508538.812000,0.929,-0.28,-0.036,8.76,-6.81,6.87
508538.859000,0.973,-0.316,-0.029,-0.12,-6.04,2.11
508538.906000,0.986,-0.364,0.052,11.63,-5.31,3.6
508538.953000,0.936,-0.254,0.146,24.11,9.46,2.56
508539.000000,0.957,-0.315,0.158,21.39,-7.02,5.37
508539.046000,0.984,-0.27,0.115,19.96,-5.07,-1.43
508539.093000,0.948,-0.407,0.022,6.59,-21.61,10.47
508539.140000,1.01,-0.323,-0.068,20.02,-0.89,-7.14
508539.187000,0.874,-0.365,-0.127,-10.47,-11.17,4.3
508539.234000,0.913,-0.179,0.064,5.74,37.45,-24.75
508539.296000,0.825,-0.108,0.174,-50.08,-2.17,-23.47
508539.343000,0.901,-0.142,0.233,-16.6,-4.09,7.35
508539.390000,0.804,-0.283,0.235,-38.61,-35.83,24.11
508539.437000,0.799,-0.318,0.117,-24.57,-32.96,28.38
508539.484000,0.822,-0.754,-0.539,-53.19,-133.03,79.47
508539.531000,0.859,-0.434,-0.708,26.55,11.84,10.07
508539.578000,0.854,-0.41,-0.434,6.2,-47.27,10.07
508539.625000,1.017,-0.365,-0.172,-10.83,-22.8,-23.62
508539.671000,0.969,-0.287,0.019,-32.32,-36.32,-23.8
508539.718000,0.936,-0.269,-0.194,-37.75,-33.39,-18.62
508539.765000,0.654,-0.173,-0.194,-54.72,-25.15,-21.24
508539.812000,0.536,-0.159,-0.546,-49.38,-50.54,-0.18
508539.859000,0.754,-0.104,-0.867,-88.08,-67.84,-59.51
508539.921000,0.818,-0.081,-0.796,-52.58,-71.02,-10.71
508539.968000,0.85,-0.099,-0.779,-32.96,-24.17,-13.31
508540.031000,0.843,-0.189,-0.723,-11.9,-32.35,26.25
508540.078000,0.784,-0.187,-0.687,5.68,2.32,-2.93
508540.125000,0.79,-0.055,-0.64,1.04,-6.9,-10.1
508540.171000,0.772,-0.039,-0.636,4.21,-5.77,-5.25
508540.218000,0.782,-0.052,-0.642,6.47,-7.26,8.7
508540.265000,0.764,-0.088,-0.63,13.79,-5.31,19.99
508540.312000,0.794,-0.133,-0.67,6.93,-8.09,4.46
508540.359000,0.764,-0.111,-0.55,7.48,3.48,1.74
508540.406000,0.754,-0.126,-0.657,6.07,4.61,8.3
508540.453000,0.748,-0.156,-0.573,5.8,1.53,3.6
508540.500000,0.767,-0.167,-0.645,17.58,11.99,9.86
508540.546000,0.725,-0.193,-0.565,2.78,-0.61,7.32
508540.593000,0.824,-0.177,-0.724,-5.71,-13.73,5.71
508540.640000,0.835,-0.231,-0.618,1.92,6.74,8.12
508540.687000,0.778,-0.182,-0.605,-5.34,5.8,-3.45
508540.734000,0.793,-0.167,-0.477,2.9,16.08,1.5
508540.781000,0.717,-0.191,-0.5,1.59,12.24,-0.55
508540.828000,0.691,-0.178,-0.512,-0.7,6.32,4.24
508540.875000,0.661,-0.242,-0.503,14.59,17.09,1.1
508540.921000,0.736,-0.16,-0.478,-2.26,-5.34,1.22
508540.968000,0.757,-0.268,-0.578,2.41,-5.92,14.44
508541.015000,0.803,-0.277,-0.516,-11.32,-10.22,-10.16
508541.062000,0.862,-0.203,-0.59,3.45,5.25,-3.72
508541.109000,0.815,-0.214,-0.588,-7.48,-19.2,0.61
508541.171000,0.82,-0.167,-0.571,-2.08,1.86,-0.49
508541.218000,0.839,-0.176,-0.657,-5.28,-5.28,5.74
508541.265000,0.792,-0.165,-0.601,-1.68,0.95,-2.47
508541.312000,0.816,-0.15,-0.67,-1.83,0.46,4.39
508541.359000,0.774,-0.198,-0.576,0.31,5.71,2.35
508541.406000,0.773,-0.147,-0.561,-4.09,3.88,-3.63
508541.453000,0.775,-0.216,-0.6,2.17,7.26,3.91
508541.500000,0.759,-0.207,-0.539,1.98,6.26,1.71
508541.546000,0.767,-0.212,-0.548,2.11,8.27,2.17
508541.593000,0.754,-0.205,-0.511,1.04,5.8,2.72
508541.640000,0.755,-0.171,-0.538,-2.47,4.33,-4.67
508541.687000,0.765,-0.219,-0.555,-2.96,-1.56,3.08
508541.734000,0.754,-0.174,-0.532,-3.45,-0.21,-0.76
508541.781000,0.764,-0.188,-0.544,-3.85,-5.04,2.66
508541.828000,0.774,-0.228,-0.563,1.95,1.92,4.94
508541.875000,0.789,-0.172,-0.584,-2.53,-1.65,-4.3
508541.921000,0.777,-0.202,-0.593,0.64,-4.21,5.8
508541.968000,0.795,-0.18,-0.575,0.24,-0.52,-3.63
508542.031000,0.771,-0.191,-0.574,-0.49,-4.3,5.19
508542.093000,0.745,-0.183,-0.555,-1.37,-1.68,-0.31
508542.140000,0.775,-0.195,-0.582,-3.39,-3.11,1.98
508542.187000,0.767,-0.195,-0.572,0.52,-0.79,2.38
508542.234000,0.747,-0.179,-0.588,-3.05,-2.2,3.45
508542.281000,0.767,-0.219,-0.573,-0.58,-3.57,4.09
508542.328000,0.792,-0.199,-0.649,2.5,-2.2,5.28
508542.375000,0.75,-0.183,-0.619,5.1,5.1,-0.24
508542.421000,0.779,-0.234,-0.678,8.88,0.21,5.22
508542.468000,0.793,-0.262,-0.692,17.46,9.09,3.39
508542.515000,0.722,-0.255,-0.645,14.5,6.38,-2.9
508542.562000,0.735,-0.266,-0.643,21.45,11.63,-18.71
508542.609000,0.699,-0.274,-0.76,28.11,7.81,-13.21
508542.656000,0.701,-0.349,-0.965,29.51,-0.09,-34.24
508542.703000,0.67,-0.202,-0.891,55.18,11.11,-28.23
508542.750000,0.712,-0.216,-0.862,50.6,-3.63,-23.83
508542.796000,0.719,-0.014,-0.661,43.86,26.89,-49.13
508542.843000,0.73,-0.214,-0.51,47.18,-1.19,0.24
508542.890000,0.808,-0.138,-0.521,14.53,9.43,-41.38
508542.937000,0.768,-0.199,-0.264,1.62,2.62,-16.45
508542.984000,0.949,-0.093,-0.313,10.68,14.22,-44.62
508543.031000,0.849,-0.145,-0.273,-6.62,17.88,-10.53
508543.078000,0.961,-0.144,-0.526,0.21,25.06,-11.44
508543.125000,0.89,-0.118,-0.322,0.24,59.33,-6.16
508543.171000,0.985,-0.067,-0.281,2.5,89.18,-2.47
508543.218000,0.85,0.127,0.212,-6.01,108.92,-16.48
508543.281000,0.771,-0.07,0.031,-45.35,19.9,16.39
508543.328000,0.953,-0.172,-0.125,-3.85,15.63,20.91
508543.375000,1.028,-0.153,-0.121,-17.61,17.94,13.43
508543.421000,0.98,-0.172,-0.057,0.21,31.28,20.26
508543.468000,0.97,-0.242,-0.039,-16.94,9.86,13.73
508543.515000,0.931,-0.228,-0.087,0.7,-0.09,12.67
508543.562000,0.98,-0.11,-0.13,-12.67,-8.21,-2.59
508543.609000,0.978,-0.159,-0.135,-10.19,-6.35,6.81
508543.656000,0.965,-0.188,-0.208,-10.38,-14.5,9.31
508543.703000,0.967,-0.171,-0.224,-6.41,4.0,-3.66
508543.750000,0.939,-0.188,-0.175,-9.95,2.32,-0.7
508543.796000,0.928,-0.167,-0.162,2.04,-2.69,2.29
508543.843000,0.956,-0.149,-0.188,-12.57,-9.67,-2.75
508543.890000,0.959,-0.193,-0.261,-1.74,-4.21,-2.93
508543.937000,0.919,-0.151,-0.208,-0.18,1.95,-2.35
508543.984000,0.958,-0.129,-0.248,-3.45,2.93,-1.43
508544.031000,0.924,-0.165,-0.2,0.09,0.27,3.66
508544.078000,0.961,-0.157,-0.221,-6.23,3.36,1.83
508544.125000,0.918,-0.194,-0.198,0.03,2.23,2.32
508544.171000,0.954,-0.169,-0.196,-0.58,0.55,2.99
508544.218000,0.95,-0.2,-0.24,-0.21,-2.87,2.44
508544.265000,0.938,-0.164,-0.18,-1.16,0.03,0.09
508544.312000,0.931,-0.177,-0.193,3.02,-2.11,3.94
508544.359000,0.927,-0.194,-0.197,1.46,-6.29,1.77
508544.406000,0.974,-0.148,-0.204,-1.77,-6.04,2.53
508544.453000,0.985,-0.188,-0.25,-1.77,0.64,5.25
508544.500000,0.917,-0.21,-0.16,1.07,3.94,3.81
508544.546000,0.945,-0.186,-0.204,0.85,0.37,1.22
508544.593000,0.945,-0.202,-0.189,-0.4,-4.39,1.19
508544.640000,0.958,-0.175,-0.227,2.08,0.06,0.4
508544.687000,0.934,-0.173,-0.181,0.03,3.36,-1.95
508544.734000,0.936,-0.197,-0.223,0.37,-1.74,0.34
508544.781000,0.947,-0.186,-0.213,0.27,1.31,-0.61
508544.828000,0.941,-0.199,-0.228,0.31,-0.82,-0.4
508544.875000,0.934,-0.172,-0.181,0.15,2.04,0.92
508544.921000,0.951,-0.183,-0.251,-0.37,-6.32,1.19
508544.968000,0.937,-0.201,-0.225,-1.16,2.56,1.62
508545.015000,0.938,-0.191,-0.23,1.01,-2.78,0.61
508545.062000,0.931,-0.197,-0.216,-0.55,2.26,0.21
508545.109000,0.932,-0.194,-0.21,-0.15,-4.7,2.81
508545.156000,0.933,-0.203,-0.216,1.01,3.63,-0.34
508545.203000,0.94,-0.185,-0.228,1.59,-4.73,3.69
508545.250000,0.924,-0.185,-0.209,2.53,3.11,-0.27
508545.312000,0.945,-0.192,-0.215,-2.08,-2.99,2.11
508545.359000,0.934,-0.207,-0.235,3.75,1.1,1.98
508545.406000,0.949,-0.198,-0.217,-1.19,3.02,-0.24
508545.453000,0.945,-0.196,-0.214,2.62,4.7,2.5
508545.500000,0.923,-0.208,-0.209,1.43,1.28,3.42
508545.546000,0.944,-0.213,-0.213,2.35,3.57,-0.18
508545.593000,0.939,-0.233,-0.235,3.11,-1.28,3.3
508545.640000,0.914,-0.19,-0.201,0.61,1.77,-0.85
508545.687000,0.941,-0.193,-0.202,1.34,-6.26,3.3
508545.734000,0.927,-0.22,-0.207,5.4,-1.31,3.97
508545.781000,0.947,-0.245,-0.213,2.11,-2.9,0.76
508545.828000,0.927,-0.213,-0.204,5.65,0.73,1.31
508545.875000,0.935,-0.22,-0.245,0.61,-6.01,0.18
508545.921000,0.939,-0.208,-0.216,7.05,3.88,-0.58
508545.968000,0.924,-0.202,-0.086,10.71,1.22,4.7
508546.031000,0.943,-0.386,0.149,14.83,-1.8,4.79
508546.078000,0.912,-0.115,0.531,33.11,9.25,-28.72
508546.125000,0.903,-0.149,0.733,25.85,-32.2,1.8
508546.171000,1.01,0.037,0.339,1.95,-39.83,-4.97
508546.218000,0.998,-0.057,0.223,-14.65,1.92,2.2
508546.265000,0.874,-0.132,-0.15,-43.64,-10.68,4.3
508546.312000,0.852,-0.236,-0.7,-73.98,-39.89,-20.14
508546.359000,0.542,-0.042,-0.781,-71.14,-41.66,-27.01
508546.406000,0.733,0.017,-1.276,-80.48,-128.12,-7.66
508546.453000,0.613,0.004,-0.978,-85.97,-72.27,-1.62
508546.500000,0.916,-0.158,-1.097,-45.41,-66.59,30.95
508546.546000,0.816,-0.216,-0.8,1.34,-4.79,36.77
508546.593000,0.805,-0.17,-0.822,6.16,-21.21,16.69
508546.640000,0.769,-0.124,-0.502,19.9,5.74,10.07
508546.687000,0.769,-0.078,-0.682,7.54,-7.42,-2.29
508546.734000,0.758,-0.117,-0.541,10.68,5.52,0.21
508546.781000,0.816,-0.068,-0.622,-7.97,-15.72,-12.05
508546.843000,0.778,-0.098,-0.558,6.93,0.34,6.41
508546.890000,0.776,-0.064,-0.611,-4.43,-1.65,-3.02
508546.937000,0.811,-0.162,-0.582,-1.59,1.34,5.46
508546.984000,0.793,-0.132,-0.577,-0.4,3.88,0.85
508547.031000,0.742,-0.135,-0.547,-1.46,6.2,1.4
508547.078000,0.809,-0.157,-0.619,1.95,5.04,-1.37
508547.125000,0.762,-0.143,-0.474,-0.27,1.95,3.57
508547.171000,0.804,-0.106,-0.62,3.42,2.99,-2.32
508547.218000,0.774,-0.127,-0.509,-0.27,2.66,-1.89
508547.265000,0.757,-0.118,-0.558,3.85,7.32,6.62
508547.312000,0.774,-0.156,-0.543,-2.75,-2.29,1.43
508547.359000,0.797,-0.124,-0.574,1.71,-2.01,1.13
508547.406000,0.785,-0.128,-0.493,4.46,-0.15,6.04
508547.453000,0.791,-0.13,-0.556,-4.55,-7.11,0.85
508547.500000,0.795,-0.153,-0.548,-7.6,-3.48,3.48
508547.546000,0.811,-0.159,-0.598,-4.58,-6.53,4.88
508547.593000,0.804,-0.146,-0.576,-3.39,2.87,3.51
508547.640000,0.823,-0.169,-0.624,2.96,2.38,5.74
508547.687000,0.759,-0.159,-0.55,3.57,3.57,7.48
508547.734000,0.763,-0.156,-0.545,-0.37,-1.65,2.93
508547.781000,0.772,-0.16,-0.568,-1.5,-2.41,4.39
508547.828000,0.756,-0.179,-0.583,1.04,-4.0,6.93
508547.875000,0.781,-0.176,-0.616,6.35,2.78,2.41
508547.921000,0.77,-0.113,-0.637,9.06,1.5,2.84
508547.968000,0.731,-0.297,-0.676,16.51,-22.31,24.08
508548.015000,0.791,-0.298,-1.022,8.94,-36.96,-10.93
508548.062000,0.702,-0.399,-0.942,73.89,55.82,-6.87
508548.109000,0.622,-0.222,-1.187,35.95,9.49,-63.02
508548.156000,0.591,-0.162,-0.681,102.18,73.82,-44.53
508548.203000,0.739,0.103,-0.704,31.95,21.85,-41.99
508548.250000,0.725,-0.226,-0.283,61.49,-0.98,0.79
508548.296000,0.973,-0.087,-0.665,-28.93,-35.04,-35.83
508548.343000,0.751,-0.127,-0.292,11.02,17.85,-25.09
508548.390000,0.899,-0.119,-0.413,-11.14,0.95,-7.54
508548.437000,0.862,-0.198,-0.405,-28.29,0.31,10.38
508548.484000,0.908,-0.211,-0.46,-60.24,-4.09,11.02
508548.531000,0.947,-0.265,-0.344,-56.73,57.47,9.22
508548.578000,0.886,-0.188,-0.036,-26.89,67.35,7.08
508548.625000,0.972,0.098,0.418,-20.6,88.44,-12.76
508548.671000,0.848,-0.176,-0.022,-89.39,-14.37,21.36
508548.718000,0.963,-0.303,-0.397,-26.37,19.07,9.22
508548.765000,0.925,-0.161,-0.109,-0.82,19.41,5.25
508548.812000,0.931,-0.117,-0.161,10.77,18.89,8.45
508548.859000,0.942,-0.074,-0.15,-6.47,-8.61,5.22
508548.906000,0.935,-0.138,-0.333,2.69,-4.33,7.72
508548.953000,0.978,-0.111,-0.319,9.61,-5.89,2.59
508549.000000,0.973,-0.12,-0.312,6.71,4.33,0.76
508549.046000,0.923,-0.115,-0.243,3.2,0.76,-1.86
508549.093000,0.919,-0.132,-0.272,7.72,1.77,0.64
508549.140000,0.923,-0.104,-0.279,5.16,-6.53,-1.1
508549.187000,0.922,-0.158,-0.304,1.86,6.1,-5.31
508549.234000,0.939,-0.08,-0.31,9.16,3.54,3.36
508549.281000,0.892,-0.119,-0.252,-0.82,2.38,-0.18
508549.328000,0.937,-0.141,-0.308,4.21,-8.12,6.47
508549.375000,0.896,-0.13,-0.248,2.47,0.4,0.15
508549.421000,0.98,-0.158,-0.361,7.2,-12.36,5.52
508549.468000,0.915,-0.116,-0.252,0.98,11.17,-2.72
508549.531000,0.92,-0.141,-0.299,1.04,0.76,-1.92
508549.593000,0.934,-0.137,-0.269,1.5,-6.13,2.81
508549.640000,0.908,-0.132,-0.305,-4.97,-0.79,2.9
508549.687000,0.935,-0.171,-0.294,2.23,-7.57,5.28
508549.734000,0.931,-0.118,-0.248,2.17,4.36,-0.7
508549.781000,0.935,-0.148,-0.262,-3.27,-6.71,5.46
508549.828000,0.92,-0.187,-0.299,-0.95,0.89,-0.24
508549.875000,0.936,-0.147,-0.302,0.31,-0.67,0.61
508549.921000,0.932,-0.157,-0.307,0.95,-0.73,1.07
508549.984000,0.896,-0.136,-0.242,-2.69,2.78,0.43
508550.031000,0.919,-0.178,-0.307,-0.98,-1.4,0.49
508550.078000,0.935,-0.148,-0.289,1.53,-1.95,-0.49
508550.125000,0.923,-0.137,-0.283,2.56,0.43,3.91
508550.171000,0.931,-0.185,-0.296,-6.65,-3.78,-1.92
508550.218000,0.933,-0.143,-0.298,3.54,3.97,0.34
508550.265000,0.903,-0.136,-0.283,-4.79,-2.53,-0.27
508550.312000,0.929,-0.17,-0.326,-0.06,2.59,0.37
508550.359000,0.925,-0.116,-0.275,-2.41,2.11,-0.61
508550.406000,0.911,-0.183,-0.295,-1.98,2.2,3.17
508550.453000,0.927,-0.157,-0.284,-1.37,0.67,0.79
508550.500000,0.916,-0.156,-0.282,-4.24,-0.21,1.5
508550.546000,0.921,-0.174,-0.297,0.18,-2.41,3.48
508550.593000,0.933,-0.14,-0.307,-1.34,1.01,1.4
508550.640000,0.929,-0.168,-0.306,2.01,-0.49,3.54
508550.687000,0.923,-0.156,-0.286,0.31,5.22,0.82
508550.734000,0.919,-0.169,-0.287,2.29,1.07,1.34
508550.781000,0.92,-0.155,-0.265,-1.65,-0.09,0.06
508550.828000,0.91,-0.154,-0.261,-1.56,-2.69,1.89
508550.875000,0.938,-0.189,-0.323,-0.31,-4.21,1.13
508550.921000,0.916,-0.147,-0.276,0.06,-2.81,0.43
508550.968000,0.936,-0.144,-0.263,0.24,-2.47,0.15
508551.015000,0.934,-0.151,-0.139,7.14,0.46,6.01
508551.062000,0.955,-0.113,0.11,16.39,13.43,2.69
508551.109000,0.877,-0.129,0.366,32.35,10.77,13.52
508551.156000,0.898,-0.313,0.437,21.55,-28.17,19.2
508551.203000,0.99,-0.404,0.176,31.8,-49.71,10.28
508551.250000,1.042,-0.383,-0.085,31.92,-27.62,-11.63
508551.296000,0.958,-0.241,-0.129,20.87,0.12,-15.05
508551.343000,0.779,-0.215,-0.381,-7.72,-39.74,0.92
508551.390000,0.682,-0.198,-0.402,-7.97,-42.7,1.74
508551.437000,0.737,-0.28,-0.878,-34.52,-55.51,-2.9
508551.484000,0.727,-0.139,-0.948,-54.81,-55.39,-40.07
508551.531000,0.692,0.061,-0.751,-50.87,-40.41,-31.16
508551.578000,0.798,0.047,-0.845,-41.35,-16.08,-10.44
508551.625000,0.584,0.09,-0.645,-40.65,-20.26,7.9
508551.671000,0.651,0.017,-0.867,-37.05,-26.46,24.45
508551.718000,0.593,-0.043,-0.639,-41.93,-34.46,22.1
508551.765000,0.736,-0.115,-0.904,-15.75,-35.04,26.4
508551.812000,0.747,-0.21,-0.677,-5.58,-14.59,23.32
508551.859000,0.812,-0.141,-0.791,9.64,-3.63,11.23
508551.906000,0.794,-0.28,-0.642,23.16,1.59,16.57
508551.953000,0.751,-0.147,-0.655,30.18,20.72,0.7
508552.000000,0.72,-0.092,-0.567,11.47,11.87,-10.83
508552.046000,0.759,-0.067,-0.64,18.28,11.63,-2.2
508552.093000,0.706,-0.107,-0.497,5.74,1.74,4.0
508552.140000,0.758,-0.099,-0.654,-7.84,-5.68,-1.74
508552.187000,0.747,-0.155,-0.595,0.27,1.59,9.34
508552.234000,0.77,-0.166,-0.661,0.92,-2.93,6.74
508552.281000,0.736,-0.189,-0.615,-2.29,3.85,2.14
508552.328000,0.762,-0.158,-0.612,1.31,0.98,1.53
508552.375000,0.7,-0.186,-0.557,3.42,7.51,7.57
508552.421000,0.743,-0.182,-0.594,-1.92,-7.26,7.17
508552.468000,0.731,-0.202,-0.588,2.5,-1.16,10.13
508552.515000,0.725,-0.193,-0.553,-8.55,-2.41,-5.1
508552.562000,0.79,-0.178,-0.646,-0.64,-1.62,1.77
508552.609000,0.749,-0.206,-0.604,-4.61,-6.35,5.37
508552.656000,0.77,-0.18,-0.654,-4.0,0.64,-1.74
508552.703000,0.74,-0.183,-0.595,-2.32,-0.61,-0.06
508552.750000,0.737,-0.165,-0.621,0.27,4.3,-1.92
508552.796000,0.743,-0.173,-0.581,-2.81,-4.61,0.12
508552.843000,0.742,-0.124,-0.62,0.4,2.87,3.75
508552.890000,0.714,-0.149,-0.601,-5.49,-3.63,7.66
508552.937000,0.7,-0.18,-0.666,-4.03,-2.29,5.58
508552.984000,0.709,-0.174,-0.713,2.5,1.53,1.31
508553.031000,0.75,-0.171,-0.766,16.45,6.44,-6.53
508553.078000,0.733,-0.2,-0.853,25.27,9.46,-9.55
508553.125000,0.594,-0.158,-0.82,45.29,15.2,-4.33
508553.171000,0.619,-0.241,-0.797,54.14,-6.93,22.92
508553.218000,0.691,-0.307,-0.98,28.96,10.44,-34.82
508553.265000,0.699,-0.341,-0.84,59.94,35.22,-26.09
508553.312000,0.639,-0.118,-0.68,21.09,9.58,-48.22
508553.359000,0.689,-0.279,-0.572,45.9,8.7,-13.86
508553.406000,0.823,-0.036,-0.602,2.38,9.28,-50.42
508553.453000,0.75,-0.386,-0.395,36.77,13.21,21.3
508553.500000,0.876,-0.252,-0.435,-4.67,10.44,-20.23
508553.546000,0.883,-0.187,-0.391,-5.74,29.33,3.11
508553.593000,0.92,-0.369,-0.515,-28.53,30.09,4.12
508553.640000,0.875,-0.287,-0.351,-18.52,71.29,-15.78
508553.687000,0.927,-0.236,-0.027,13.4,96.8,-13.7
508553.734000,1.02,0.269,0.297,9.52,113.83,-29.48
508553.781000,0.813,0.192,0.375,-65.55,52.03,0.12
508553.828000,0.91,-0.355,-0.147,-49.13,-22.74,42.33
508553.875000,0.904,-0.36,-0.167,-31.89,0.27,2.69
508553.921000,0.986,-0.253,-0.168,2.11,6.53,-1.74
508553.968000,0.962,-0.166,-0.174,6.32,2.17,3.66
508554.015000,0.91,-0.146,-0.218,2.99,-1.1,-3.97
508554.062000,0.916,-0.184,-0.234,14.37,-6.93,6.01
508554.109000,0.917,-0.199,-0.211,10.65,-5.8,-0.82
508554.156000,0.952,-0.254,-0.266,10.86,-17.03,-0.73
508554.203000,0.995,-0.235,-0.366,13.7,7.97,-17.15
508554.250000,0.967,-0.195,-0.309,22.16,0.06,-15.53
508554.296000,0.98,-0.121,-0.293,17.7,29.91,-35.1
508554.343000,0.928,-0.04,-0.148,11.99,32.93,-26.18
508554.390000,0.87,-0.079,-0.136,1.34,3.39,-8.36
508554.453000,0.864,-0.148,-0.205,-4.46,-9.74,-0.64
508554.500000,0.905,-0.155,-0.248,3.3,-8.27,5.55
508554.562000,0.95,-0.162,-0.245,8.97,-1.59,1.77
508554.609000,0.96,-0.155,-0.246,6.62,4.79,-0.7
508554.656000,0.961,-0.109,-0.255,1.65,-0.09,-4.76
508554.703000,0.923,-0.146,-0.223,-1.4,2.84,4.36
508554.750000,0.939,-0.14,-0.268,-5.25,4.06,-0.85
508554.796000,0.935,-0.142,-0.213,-1.16,0.15,2.87
508554.843000,0.931,-0.125,-0.183,-3.33,1.86,2.32
508554.890000,0.933,-0.155,-0.215,-2.08,-2.14,3.39
508554.937000,0.941,-0.12,-0.202,-5.13,-5.83,1.74
508555.000000,0.946,-0.185,-0.217,-2.93,-9.34,8.55
508555.062000,0.97,-0.174,-0.275,-4.3,-7.97,1.65
508555.109000,0.94,-0.159,-0.262,-3.3,-8.39,3.2
508555.156000,0.947,-0.183,-0.26,-1.92,-2.26,0.0
508555.203000,0.937,-0.147,-0.274,-1.1,-3.94,-1.04
508555.250000,0.925,-0.162,-0.268,0.21,-3.45,-1.22
508555.296000,0.927,-0.138,-0.29,1.22,-1.04,-2.78
508555.343000,0.936,-0.17,-0.299,3.51,-3.2,2.29
508555.390000,0.905,-0.107,-0.255,-4.67,-0.52,-6.04
508555.437000,0.932,-0.151,-0.301,-2.38,1.19,3.36
508555.484000,0.909,-0.153,-0.289,0.21,-0.95,5.07
508555.531000,0.955,-0.119,-0.304,6.59,13.58,2.5
508555.578000,0.966,-0.108,-0.274,11.54,27.01,2.44
508555.640000,0.983,-0.177,-0.301,30.98,53.56,16.24
508555.687000,0.934,-0.253,-0.175,40.5,39.55,10.62
508555.734000,0.951,-0.207,-0.024,32.29,55.54,1.98
508555.781000,0.931,-0.152,-0.192,62.96,42.51,-8.94
508555.828000,0.842,-0.146,0.215,39.03,46.57,21.85
508555.875000,0.85,-0.106,0.164,19.29,9.09,-5.52
508555.921000,0.844,-0.037,0.44,-1.04,3.39,12.76
508555.968000,0.868,-0.13,0.525,-2.2,-32.93,33.97
508556.015000,0.916,-0.303,0.298,21.76,-54.9,47.0
508556.062000,0.931,-0.24,0.272,20.05,-36.87,37.26
508556.109000,0.877,-0.317,0.079,10.99,-63.26,50.29
508556.156000,0.868,-0.371,0.135,-27.5,-49.9,27.92
508556.203000,0.747,-0.349,-0.191,-67.29,-76.48,18.07
508556.250000,0.786,-0.646,-0.446,-71.57,-71.78,35.16
508556.296000,0.716,-0.369,-0.604,-117.1,-72.18,-62.17
508556.343000,0.675,-0.16,-0.885,-127.38,-65.03,-67.66
508556.390000,0.608,-0.013,-0.956,-97.57,-63.57,-31.86
508556.437000,0.69,0.013,-1.169,-96.16,-58.87,-2.93
508556.484000,0.7,-0.096,-0.901,-37.2,-40.44,40.89
508556.531000,0.724,-0.045,-0.855,-21.97,-20.14,12.51
508556.578000,0.726,0.026,-0.784,-17.12,-17.55,3.72
508556.625000,0.765,0.014,-0.799,-2.72,-6.16,2.9
508556.671000,0.695,0.014,-0.719,0.31,3.97,15.11
508556.718000,0.713,-0.141,-0.758,10.1,-3.66,23.01
508556.765000,0.687,-0.096,-0.743,6.65,15.26,0.18
508556.812000,0.727,-0.074,-0.703,19.59,7.48,9.0
508556.859000,0.77,-0.195,-0.738,23.5,14.28,16.91
508556.906000,0.709,-0.072,-0.637,14.01,30.64,-19.38
508556.953000,0.761,-0.06,-0.634,12.09,15.96,1.68
508557.000000,0.717,-0.134,-0.579,14.22,21.06,6.23
508557.046000,0.71,-0.109,-0.548,0.92,6.44,-4.55
508557.093000,0.794,-0.142,-0.639,15.14,21.0,-9.22
508557.140000,0.752,-0.115,-0.544,5.13,7.54,-2.56
508557.187000,0.844,-0.167,-0.656,7.42,10.62,-4.21
508557.234000,0.817,-0.173,-0.528,6.26,7.9,-6.04
508557.281000,0.788,-0.105,-0.546,11.14,12.82,0.58
508557.328000,0.786,-0.17,-0.515,1.74,2.23,-0.18
508557.375000,0.811,-0.134,-0.575,-0.03,4.82,-6.65
508557.421000,0.754,-0.132,-0.496,-3.51,-2.93,7.84
508557.468000,0.801,-0.184,-0.553,-3.91,0.37,4.0
508557.515000,0.794,-0.15,-0.551,-6.23,-5.95,4.61
508557.562000,0.794,-0.161,-0.549,-1.92,-0.31,3.54
508557.609000,0.817,-0.154,-0.539,1.28,5.04,3.36
508557.671000,0.803,-0.182,-0.58,0.0,-5.58,5.95
508557.718000,0.775,-0.17,-0.539,-2.35,3.05,-8.91
508557.765000,0.806,-0.179,-0.675,1.62,-9.34,4.39
508557.812000,0.793,-0.233,-0.652,8.79,11.72,-13.7
508557.859000,0.732,-0.243,-0.828,23.99,-1.37,-12.36
508557.906000,0.697,-0.196,-0.857,44.31,38.79,-52.64
508557.953000,0.657,-0.055,-0.818,53.77,38.21,-46.6
508558.015000,0.753,-0.026,-0.795,53.77,11.96,-37.54
508558.062000,0.717,-0.005,-0.683,40.93,12.6,10.9
508558.109000,0.781,-0.096,-0.63,25.61,1.62,-14.25
508558.156000,0.777,-0.141,-0.575,26.4,1.19,1.92
508558.203000,0.787,-0.192,-0.396,20.97,24.78,-6.5
508558.250000,0.89,-0.169,-0.537,6.29,6.87,7.97
508558.296000,0.855,-0.239,-0.323,7.87,39.77,4.24
508558.343000,0.86,-0.224,-0.299,-29.76,35.95,16.75
508558.390000,0.954,-0.327,-0.158,13.06,39.4,21.39
508558.437000,1.201,-0.068,-0.188,-38.73,68.82,-12.73
508558.484000,0.92,-0.007,0.04,-18.77,88.35,8.3
508558.546000,0.813,-0.08,0.154,-46.3,65.0,3.85
508558.593000,0.778,-0.079,0.105,-53.59,23.62,-2.11
508558.640000,0.909,-0.219,-0.104,-47.09,-16.42,15.14
508558.687000,1.06,-0.142,-0.199,-29.18,5.68,7.93
508558.734000,0.985,-0.217,-0.16,-26.43,-0.03,14.68
508558.781000,0.983,-0.17,-0.142,-16.36,16.3,0.21
508558.828000,0.889,-0.179,-0.08,-8.67,6.59,10.56
508558.875000,0.954,-0.201,-0.177,2.66,-0.03,-0.34
508558.921000,0.918,-0.148,-0.12,-1.5,-2.78,-1.59
508558.968000,0.992,-0.209,-0.236,3.72,-7.11,1.83
508559.015000,0.923,-0.152,-0.161,6.71,-2.01,-0.82
508559.062000,0.964,-0.165,-0.243,7.57,-9.43,0.76
508559.109000,0.955,-0.179,-0.207,11.69,-1.8,0.55
508559.156000,0.958,-0.185,-0.212,10.99,-0.76,1.56
508559.203000,0.941,-0.19,-0.215,9.31,1.13,-7.14
508559.250000,0.962,-0.164,-0.181,9.31,5.31,-5.43
508559.296000,0.938,-0.166,-0.192,12.21,1.92,-5.98
508559.343000,0.96,-0.161,-0.219,3.78,-4.09,-6.62
508559.390000,0.928,-0.174,-0.216,8.45,8.61,-4.03
508559.437000,0.936,-0.153,-0.204,6.47,-0.31,-1.25
508559.484000,0.951,-0.171,-0.175,1.43,4.36,-3.88
508559.531000,0.96,-0.166,-0.224,0.0,-1.28,-0.27
508559.593000,0.957,-0.181,-0.208,4.12,4.7,-2.75
508559.640000,0.918,-0.156,-0.173,4.97,1.22,4.36
508559.687000,0.94,-0.165,-0.168,0.21,1.74,-2.99
508559.734000,0.936,-0.164,-0.184,1.19,-3.63,3.27
508559.781000,0.932,-0.168,-0.171,-1.31,-4.36,1.37
508559.828000,0.941,-0.183,-0.192,5.19,-6.26,1.25
508559.875000,0.96,-0.137,-0.209,1.95,-1.28,-2.08
508559.921000,0.958,-0.172,-0.197,-1.46,-9.67,10.93
508559.968000,0.947,-0.212,-0.213,0.76,2.69,0.76
508560.015000,0.954,-0.187,-0.186,1.56,-1.13,3.75
508560.062000,0.952,-0.19,-0.211,5.74,-0.31,2.2
508560.109000,0.958,-0.173,-0.178,-0.37,5.1,-6.59
508560.156000,0.937,-0.198,-0.213,6.41,1.65,-0.27
508560.203000,0.937,-0.198,-0.183,2.23,-1.43,2.9
508560.250000,0.959,-0.223,-0.229,7.75,1.71,4.67
508560.296000,0.939,-0.188,-0.184,2.69,6.87,-3.3
508560.343000,0.947,-0.178,-0.183,6.23,4.0,2.11
508560.390000,0.931,-0.156,-0.161,-2.84,2.99,-4.43
508560.437000,0.927,-0.17,-0.165,-0.92,-1.77,1.59
508560.484000,0.966,-0.203,-0.202,-0.15,-4.64,2.23
508560.531000,0.958,-0.203,-0.2,-0.49,1.5,2.66
508560.578000,0.958,-0.188,-0.196,2.75,-0.52,-0.21
508560.625000,0.953,-0.175,-0.176,0.95,4.0,0.18
508560.671000,0.94,-0.175,-0.188,-1.31,-3.08,-3.02
508560.718000,0.928,-0.186,-0.149,0.76,-2.78,0.61
508560.765000,0.918,-0.166,-0.143,0.7,-6.07,2.29
508560.812000,0.91,-0.18,-0.1,-0.24,-3.08,5.49
508560.859000,0.933,-0.163,-0.003,4.49,-17.88,7.9
508560.906000,0.995,-0.174,0.157,18.46,-14.8,2.87
508560.953000,0.892,-0.224,0.167,10.77,-40.86,10.16
508561.000000,1.076,-0.282,0.067,30.34,-48.89,-3.42
508561.046000,1.031,-0.212,0.007,-16.17,-60.91,-14.77
508561.093000,1.101,-0.303,-0.152,56.03,-21.39,13.55
508561.140000,0.876,-0.267,-0.147,-13.15,-39.46,1.95
508561.187000,0.964,-0.352,-0.332,1.46,-30.37,10.28
508561.234000,0.673,-0.278,-0.423,-16.42,-49.81,25.42
508561.281000,0.858,-0.372,-0.595,-29.66,-44.31,8.39
508561.328000,0.684,-0.071,-0.423,-58.11,10.07,-46.11
508561.375000,0.638,0.061,-0.589,-74.5,-30.09,-35.46
508561.421000,0.558,0.186,-0.744,-96.35,-26.76,-17.15
508561.468000,0.499,0.13,-0.851,-65.86,-44.92,16.02
508561.515000,0.646,0.045,-1.182,-68.97,-53.13,25.97
508561.562000,0.844,-0.3,-0.857,-21.58,-37.45,47.76
508561.609000,0.847,-0.159,-0.807,18.71,15.9,5.52
508561.656000,0.742,0.012,-0.61,-2.23,-0.46,-21.0
508561.703000,0.871,-0.04,-0.797,17.58,-1.19,0.89
508561.750000,0.666,-0.001,-0.506,8.12,13.61,0.82
508561.796000,0.82,-0.033,-0.722,0.43,-10.86,3.33
508561.843000,0.725,-0.132,-0.575,11.11,6.32,5.77
508561.890000,0.82,-0.11,-0.708,12.85,-7.42,3.42
508561.937000,0.781,-0.086,-0.538,30.18,9.22,7.45
508561.984000,0.805,-0.029,-0.579,7.26,-3.66,-5.98
508562.031000,0.83,-0.129,-0.598,2.87,-6.59,12.42
508562.078000,0.798,-0.154,-0.616,-4.7,-6.87,-5.1
508562.125000,0.803,-0.116,-0.589,2.23,2.2,10.86
508562.171000,0.778,-0.188,-0.615,-8.03,-1.83,4.06
508562.218000,0.746,-0.068,-0.558,-4.21,12.21,-4.3
508562.265000,0.781,-0.076,-0.582,-6.56,-5.25,5.86
508562.312000,0.758,-0.149,-0.6,-6.1,-1.53,12.12
508562.359000,0.828,-0.188,-0.636,-8.0,-6.71,1.28
508562.406000,0.765,-0.199,-0.604,0.49,6.5,9.0
508562.453000,0.779,-0.16,-0.637,-2.78,0.09,-7.75
508562.500000,0.767,-0.154,-0.569,2.01,1.92,1.8
508562.562000,0.748,-0.096,-0.623,-1.28,-0.43,-9.83
508562.609000,0.735,-0.11,-0.68,-5.89,-14.1,-7.02
508562.656000,0.806,-0.097,-0.805,9.8,-0.61,-11.47
508562.703000,0.7,-0.152,-0.816,17.52,-2.35,-6.1
508562.750000,0.745,-0.141,-1.007,49.13,28.08,-30.3
508562.796000,0.617,-0.038,-0.793,35.28,-3.72,-23.01
508562.843000,0.796,-0.25,-1.165,31.53,40.77,-41.99
508562.890000,0.613,-0.021,-0.681,0.06,70.8,-71.84
508562.937000,0.684,-0.066,-0.644,36.5,21.27,2.14
508562.984000,0.755,-0.043,-0.639,30.46,50.66,-34.12
508563.031000,0.706,0.047,-0.465,5.74,20.11,-10.9
508563.078000,0.876,0.023,-0.37,19.07,34.49,-24.26
508563.125000,0.914,0.05,-0.217,-12.7,16.63,-6.13
508563.171000,0.992,-0.073,-0.201,-5.43,30.06,21.21
508563.218000,1.041,-0.155,-0.282,-29.45,-6.38,47.46
508563.265000,0.969,-0.242,-0.329,-8.42,57.56,15.23
508563.312000,0.837,-0.106,-0.083,-36.99,50.57,4.43
508563.359000,0.842,-0.1,-0.116,-19.68,38.85,16.51
508563.406000,0.905,-0.019,-0.087,-20.57,56.89,-1.01
508563.453000,0.918,-0.034,0.141,-28.66,45.23,14.1
508563.500000,0.931,-0.09,-0.031,-35.55,12.73,15.81
508563.546000,0.996,-0.185,-0.134,-30.18,-6.04,12.09
508563.593000,0.976,-0.146,-0.165,-21.58,2.87,3.33
508563.640000,0.998,-0.132,-0.156,-17.85,-2.01,-0.03
508563.687000,0.96,-0.085,-0.178,-2.96,1.37,-1.16
508563.734000,0.965,-0.104,-0.167,-4.73,-8.64,1.68
508563.781000,0.97,-0.101,-0.234,2.56,3.08,-2.5
508563.828000,0.937,-0.081,-0.204,1.04,-4.67,3.23
508563.875000,0.957,-0.079,-0.239,6.26,1.68,-3.3
508563.921000,0.947,-0.056,-0.207,3.78,-5.95,-0.21
508563.968000,0.985,-0.106,-0.258,9.13,-2.41,2.14
508564.015000,0.939,-0.116,-0.266,8.45,-2.29,0.76
508564.062000,0.946,-0.091,-0.269,4.15,7.6,-6.68
508564.109000,0.901,-0.094,-0.212,5.86,1.19,0.0
508564.156000,0.954,-0.099,-0.255,3.45,6.29,-0.64
508564.203000,0.944,-0.094,-0.24,2.75,-5.65,-0.79
508564.250000,0.941,-0.078,-0.235,0.82,7.87,0.27
508564.296000,0.929,-0.109,-0.199,1.89,-4.27,5.62
508564.343000,0.922,-0.084,-0.245,0.49,-6.26,3.91
508564.390000,0.97,-0.109,-0.27,5.19,-6.23,4.09
508564.437000,0.931,-0.071,-0.225,2.69,4.36,2.38
508564.484000,0.946,-0.142,-0.281,3.85,-11.54,10.16
508564.531000,0.923,-0.086,-0.224,2.53,4.58,-3.85
508564.578000,0.957,-0.11,-0.248,-0.79,-7.2,5.71
508564.625000,0.955,-0.149,-0.313,1.86,-2.87,7.23
508564.671000,0.953,-0.126,-0.267,-2.87,-0.12,5.8
508564.718000,0.949,-0.133,-0.251,1.59,2.11,6.93
508564.765000,0.916,-0.118,-0.223,0.15,7.45,-2.14
508564.812000,0.928,-0.123,-0.212,0.98,-3.42,4.18
508564.859000,0.928,-0.152,-0.273,3.88,-0.98,2.29
508564.906000,0.928,-0.124,-0.224,1.95,-5.28,1.74
508564.953000,0.946,-0.145,-0.289,5.4,-3.42,2.35
508565.000000,0.937,-0.148,-0.267,0.46,-2.69,1.74
508565.046000,0.942,-0.166,-0.293,5.28,-1.25,1.04
508565.093000,0.932,-0.13,-0.268,1.65,-0.82,3.02
508565.140000,0.929,-0.157,-0.265,5.01,-2.96,2.35
508565.187000,0.94,-0.136,-0.271,4.94,-2.56,-1.62
508565.234000,0.916,-0.135,-0.258,-1.28,-2.75,-1.22
508565.281000,0.952,-0.168,-0.288,0.27,-0.12,-1.22
508565.328000,0.937,-0.12,-0.26,1.92,4.88,-2.53
508565.390000,0.932,-0.136,-0.265,-2.99,-0.79,1.46
508565.437000,0.926,-0.132,-0.257,-4.73,2.59,0.31
508565.484000,0.935,-0.136,-0.273,-1.59,-3.72,3.27
508565.531000,0.935,-0.161,-0.26,-0.4,3.05,1.92
508565.578000,0.927,-0.147,-0.262,2.04,-0.67,3.36
508565.625000,0.932,-0.16,-0.267,-2.01,0.31,0.37
508565.671000,0.944,-0.139,-0.262,0.55,-2.04,0.89
508565.718000,0.947,-0.171,-0.287,0.7,0.76,2.38
508565.765000,0.93,-0.125,-0.251,-0.24,1.83,-0.37
508565.812000,0.94,-0.171,-0.261,3.05,3.36,0.27
508565.859000,0.929,-0.147,-0.188,3.23,-0.92,0.18
508565.906000,0.916,-0.149,-0.143,7.35,1.13,2.32
508565.953000,0.878,-0.228,0.147,15.47,-6.56,6.32
508566.000000,0.895,-0.139,0.302,33.2,-30.61,-12.05
508566.062000,1.003,-0.177,0.243,28.11,-56.06,6.9
508566.109000,1.039,-0.22,-0.021,24.11,-50.54,-3.81
508566.156000,1.03,-0.183,-0.039,23.96,-42.3,-10.41
508566.203000,0.919,-0.133,-0.213,25.45,-46.21,12.18
508566.265000,0.855,-0.43,-0.682,-2.29,-69.98,38.58
508566.312000,0.643,-0.27,-0.566,-36.5,-41.17,-3.45
508566.359000,0.738,-0.206,-0.842,-49.2,-63.08,-1.74
508566.421000,0.545,-0.166,-0.842,-48.68,-58.6,10.35
508566.468000,0.474,-0.018,-0.812,-30.95,-13.52,-25.7
508566.515000,0.51,-0.008,-0.91,-45.05,-46.63,-1.22
508566.562000,0.602,0.05,-1.02,-36.35,-30.46,-13.28
508566.609000,0.608,0.022,-0.896,-33.17,-32.62,11.9
508566.656000,0.603,0.047,-0.887,-18.62,-15.87,7.57
508566.703000,0.575,-0.032,-0.803,-21.27,-26.52,19.59
508566.750000,0.619,-0.103,-0.883,-11.14,-18.71,11.54
508566.796000,0.667,-0.117,-0.895,0.15,-13.61,5.62
508566.859000,0.626,-0.099,-0.824,8.33,-6.5,3.85
508566.906000,0.657,-0.068,-0.86,11.41,6.74,-1.77
508566.953000,0.658,-0.061,-0.766,13.03,5.8,0.76
508567.000000,0.648,-0.002,-0.761,4.46,19.93,-9.34
508567.046000,0.623,-0.083,-0.691,9.98,2.23,1.37
508567.093000,0.671,-0.009,-0.721,-6.04,1.56,-9.28
508567.140000,0.647,-0.066,-0.761,3.36,-1.1,13.43
508567.187000,0.638,-0.128,-0.741,2.14,-0.18,9.06
508567.234000,0.621,-0.094,-0.708,0.09,3.2,2.99
508567.281000,0.662,-0.127,-0.726,4.39,-0.76,8.21
508567.328000,0.614,-0.11,-0.674,-3.08,2.41,0.76
508567.390000,0.632,-0.119,-0.695,-0.37,3.11,7.2
508567.437000,0.656,-0.112,-0.723,-3.48,4.06,-0.7
508567.484000,0.651,-0.134,-0.736,2.23,3.75,8.03
508567.531000,0.652,-0.139,-0.705,0.34,3.14,0.27
508567.578000,0.659,-0.13,-0.694,-1.01,4.36,3.85
508567.625000,0.648,-0.13,-0.742,-0.03,4.79,3.94
508567.671000,0.645,-0.141,-0.672,-3.85,0.92,0.09
508567.718000,0.658,-0.115,-0.74,-1.68,2.75,1.59
508567.765000,0.628,-0.105,-0.695,-6.68,-3.81,0.43
508567.812000,0.668,-0.086,-0.754,-5.04,-1.28,-1.07
508567.859000,0.578,-0.085,-0.65,-6.87,-2.75,7.02
508567.906000,0.63,-0.109,-0.765,-14.04,-4.58,0.21
508567.953000,0.572,-0.089,-0.708,-1.19,-5.34,6.26
508568.000000,0.637,-0.133,-0.897,-4.06,-8.12,-0.95
508568.046000,0.594,-0.178,-0.936,17.79,-5.28,0.15
508568.093000,0.617,-0.206,-1.021,30.21,12.91,-18.07
508568.140000,0.491,-0.083,-1.09,47.4,21.0,-30.67
508568.187000,0.502,-0.315,-1.095,62.72,10.96,-9.83
508568.234000,0.425,0.04,-0.891,25.7,38.33,-72.33
508568.281000,0.526,-0.066,-0.825,70.25,10.07,-9.34
508568.328000,0.672,-0.041,-0.865,51.36,41.35,-44.92
508568.375000,0.603,-0.102,-0.592,44.4,12.88,-10.16
508568.421000,0.689,-0.191,-0.624,31.68,10.93,-11.41
508568.468000,0.606,-0.313,-0.572,17.7,41.41,-4.91
508568.515000,0.667,-0.287,-0.3,25.48,22.22,-2.47
508568.562000,1.006,-0.091,-0.42,-15.08,19.29,-19.9
508568.609000,0.986,-0.158,-0.364,-11.08,57.95,36.56
508568.656000,1.096,-0.108,-0.329,-32.38,72.97,19.2
508568.703000,0.936,-0.134,-0.078,-44.8,108.52,11.78
508568.750000,0.949,0.013,-0.246,-72.63,100.86,-18.56
508568.812000,0.764,-0.289,0.061,-61.59,42.45,12.94
508568.859000,0.871,-0.282,-0.109,-58.75,24.99,-6.44
508568.906000,0.915,-0.157,-0.127,-20.63,-2.23,3.45
508568.953000,0.982,-0.135,-0.261,-12.54,5.86,-0.03
508569.000000,0.951,-0.104,-0.199,3.08,1.13,9.37
508569.046000,0.883,-0.131,-0.185,-3.88,2.2,5.28
508569.093000,0.96,-0.155,-0.257,2.59,-14.95,8.97
508569.140000,0.922,-0.175,-0.248,6.32,0.49,0.12
508569.187000,0.968,-0.16,-0.278,6.62,-7.75,2.47
508569.250000,0.902,-0.168,-0.246,12.12,-0.31,-0.24
508569.296000,0.956,-0.142,-0.318,8.0,-7.2,1.01
508569.343000,0.945,-0.177,-0.313,17.82,3.05,1.4
508569.390000,0.889,-0.155,-0.274,5.37,0.52,-2.35
508569.437000,0.916,-0.161,-0.289,8.09,-1.53,1.77
508569.484000,0.911,-0.164,-0.287,3.97,-1.71,-2.78
508569.531000,0.942,-0.145,-0.272,3.17,-0.58,-0.98
508569.578000,0.921,-0.179,-0.302,-4.79,-3.66,-0.43
508569.625000,0.95,-0.155,-0.326,-1.19,5.55,-3.27
508569.671000,0.892,-0.165,-0.254,-4.03,1.16,0.03
508569.718000,0.926,-0.165,-0.284,-2.9,4.49,-4.55
508569.765000,0.894,-0.154,-0.248,-0.06,0.79,2.96
508569.812000,0.918,-0.147,-0.293,-7.9,-2.66,1.37
508569.859000,0.918,-0.196,-0.293,-2.01,-3.36,6.81
508569.906000,0.914,-0.142,-0.273,-3.75,-2.11,4.18
508569.953000,0.928,-0.185,-0.292,-0.24,-3.39,3.78
508570.000000,0.923,-0.155,-0.282,-1.28,-1.65,3.17
508570.046000,0.941,-0.192,-0.326,-1.89,-2.56,5.01
508570.093000,0.923,-0.19,-0.282,-0.15,-1.1,2.38
508570.140000,0.943,-0.209,-0.301,-1.16,1.4,-3.27
508570.187000,0.922,-0.171,-0.281,2.99,3.85,-2.29
508570.234000,0.904,-0.151,-0.283,2.75,5.19,-1.22
508570.281000,0.928,-0.155,-0.293,-2.38,0.46,-0.55
508570.328000,0.91,-0.191,-0.277,0.18,2.04,2.11
508570.375000,0.919,-0.164,-0.291,-3.88,1.22,-1.31
508570.421000,0.909,-0.198,-0.282,3.48,-3.2,4.46
508570.468000,0.915,-0.172,-0.299,-2.72,-1.65,-2.26
508570.515000,0.922,-0.184,-0.299,2.5,-1.71,0.67
508570.562000,0.92,-0.168,-0.29,1.86,-0.55,1.92
508570.609000,0.922,-0.166,-0.297,-2.29,0.61,1.89
508570.656000,0.909,-0.212,-0.31,-1.07,-3.42,4.0
508570.703000,0.927,-0.157,-0.295,-2.44,1.34,-1.74
508570.750000,0.899,-0.165,-0.276,-2.11,0.4,1.28
508570.796000,0.921,-0.193,-0.297,-1.34,-2.14,5.25
508570.843000,0.914,-0.185,-0.259,-1.89,0.31,1.4
508570.890000,0.936,-0.195,-0.256,6.04,-3.69,2.93
508570.937000,0.923,-0.15,-0.119,8.42,2.44,0.37
508570.984000,0.929,-0.131,0.06,21.15,-2.29,4.0
508571.031000,0.935,-0.121,0.275,24.45,-3.36,5.49
508571.078000,0.926,-0.348,0.308,46.69,-51.88,23.44
508571.125000,0.938,-0.401,0.317,39.4,-71.69,-2.53
508571.171000,1.069,-0.358,-0.053,76.24,-57.01,10.35
508571.218000,0.905,-0.28,0.01,14.98,-24.14,-23.29
508571.265000,0.98,-0.273,-0.514,-35.1,-78.65,12.36
508571.312000,0.697,-0.424,-0.811,-12.12,-52.95,22.98
508571.359000,0.653,-0.174,-0.728,-89.14,-6.13,-53.5
508571.406000,0.515,0.025,-0.923,-76.3,-34.85,-13.18
508571.453000,0.428,0.124,-1.045,-86.18,-15.59,-32.32
508571.500000,0.539,0.019,-1.176,-96.07,-60.55,-7.63
508571.562000,0.641,-0.16,-0.925,-32.81,-17.61,26.28
508571.609000,0.647,-0.141,-0.819,-6.35,-28.66,26.55
508571.656000,0.724,-0.007,-0.71,-4.73,13.0,-7.81
508571.703000,0.749,-0.092,-0.749,18.07,-9.0,13.43
508571.750000,0.668,-0.075,-0.622,20.05,9.34,9.0
508571.796000,0.719,-0.062,-0.661,0.58,-1.83,-8.97
508571.843000,0.717,-0.079,-0.653,2.29,0.85,-2.96
508571.890000,0.685,-0.082,-0.622,-3.23,-3.81,-4.97
508571.937000,0.753,-0.118,-0.704,7.54,-3.14,7.32
508571.984000,0.745,-0.099,-0.661,10.77,3.69,-2.29
508572.031000,0.698,-0.187,-0.672,4.15,3.33,0.0
508572.078000,0.768,-0.097,-0.651,6.74,10.68,-25.48
508572.125000,0.75,0.004,-0.632,8.91,-0.24,-2.72
508572.171000,0.744,-0.086,-0.584,6.1,0.09,7.11
508572.218000,0.777,-0.048,-0.691,-6.26,-4.18,-5.95
508572.265000,0.802,-0.09,-0.64,-1.68,-4.67,8.18
508572.312000,0.769,-0.117,-0.696,-3.2,-1.37,0.37
508572.375000,0.741,-0.142,-0.566,-2.62,0.55,7.11
508572.421000,0.745,-0.131,-0.633,-4.43,-0.09,7.39
508572.484000,0.748,-0.152,-0.648,-5.31,-3.81,2.23
508572.531000,0.713,-0.121,-0.585,-3.66,-1.46,5.95
508572.578000,0.719,-0.174,-0.653,-1.59,-8.45,7.29
508572.625000,0.656,-0.186,-0.648,-2.26,-5.01,-0.18
508572.671000,0.695,-0.164,-0.822,7.32,-16.91,3.3
508572.718000,0.686,-0.169,-0.801,24.38,2.44,-3.97
508572.765000,0.735,-0.219,-1.033,28.26,7.75,-21.39
508572.812000,0.536,-0.128,-0.918,58.02,23.68,-31.28
508572.859000,0.574,-0.024,-1.039,12.48,-22.71,-42.79
508572.906000,0.512,-0.025,-0.994,55.67,33.78,-31.53
508572.953000,0.563,-0.124,-0.913,35.28,-16.33,-23.93
508573.000000,0.698,-0.131,-0.779,47.82,47.33,-47.3
508573.046000,0.802,0.048,-0.683,-5.65,12.18,-51.52
508573.093000,0.791,-0.082,-0.49,36.99,55.85,-27.62
508573.140000,0.886,0.098,-0.364,-23.19,20.26,-42.91
508573.187000,0.881,0.151,-0.245,-0.12,85.73,-13.4
508573.234000,0.827,-0.018,-0.086,-29.21,11.17,23.07
508573.281000,0.913,-0.155,-0.377,-68.48,24.75,39.92
508573.328000,0.854,-0.274,-0.36,-57.47,37.66,33.2
508573.375000,0.963,-0.225,-0.413,-48.13,65.65,21.03
508573.421000,0.906,-0.023,-0.095,-27.95,118.66,0.52
508573.468000,0.946,-0.012,0.107,-1.28,69.46,23.26
508573.515000,0.874,0.027,0.18,-57.41,52.61,4.67
508573.578000,0.908,-0.209,0.061,-33.57,-0.82,22.83
508573.625000,0.944,-0.181,-0.028,-24.14,-0.46,5.46
508573.687000,1.016,-0.091,-0.197,5.71,-1.65,-7.11
508573.734000,0.998,-0.03,-0.157,5.01,-5.8,-5.04
508573.781000,0.943,-0.056,-0.245,8.3,6.84,-6.5
508573.828000,0.948,-0.044,-0.188,7.51,-9.28,-6.2
508573.875000,0.946,-0.044,-0.24,3.78,5.16,-9.13
508573.921000,0.971,-0.03,-0.168,4.52,-3.23,1.83
508573.968000,0.95,-0.053,-0.197,-2.93,-1.62,-0.79
508574.015000,0.957,-0.108,-0.226,7.75,2.93,6.1
508574.062000,0.923,-0.063,-0.172,4.43,-5.16,-3.42
508574.109000,0.965,-0.037,-0.248,8.42,3.54,0.34
508574.156000,0.98,-0.062,-0.23,1.89,-4.61,2.32
508574.203000,0.947,-0.079,-0.258,2.47,4.39,-0.27
508574.250000,0.957,-0.087,-0.171,3.14,2.5,5.16
508574.296000,0.936,-0.072,-0.201,4.52,-0.64,-2.99
508574.343000,0.962,-0.054,-0.181,-1.5,-1.37,0.37
508574.390000,0.945,-0.058,-0.199,-4.15,-7.6,2.47
508574.453000,0.97,-0.095,-0.223,0.12,-0.46,0.98
508574.500000,0.959,-0.079,-0.222,-1.62,-5.37,1.04
508574.546000,0.93,-0.065,-0.211,-3.72,1.4,-2.5
508574.593000,0.95,-0.079,-0.221,-1.59,-2.9,-0.52
508574.640000,0.954,-0.071,-0.246,2.72,2.78,1.83
508574.687000,0.953,-0.073,-0.212,-2.59,-3.94,-0.55
508574.734000,0.96,-0.064,-0.274,-1.19,4.43,-0.12
508574.781000,0.934,-0.062,-0.198,-4.36,-3.42,0.09
508574.828000,0.94,-0.062,-0.232,-3.85,1.89,-4.24
508574.875000,0.945,-0.059,-0.2,1.98,0.27,0.55
508574.921000,0.954,-0.067,-0.235,1.16,1.59,2.04
508574.968000,0.95,-0.067,-0.207,-1.86,2.78,3.48
508575.015000,0.952,-0.076,-0.216,-2.32,-0.31,5.28
508575.062000,0.949,-0.096,-0.232,-0.82,1.86,0.43
508575.109000,0.954,-0.057,-0.212,-1.46,-1.5,0.85
508575.156000,0.953,-0.108,-0.24,-1.71,-3.45,1.19
508575.203000,0.954,-0.062,-0.199,0.15,2.17,-2.47
508575.250000,0.936,-0.09,-0.216,0.4,-2.32,2.5
508575.296000,0.949,-0.058,-0.231,0.76,1.04,-2.59
508575.343000,0.955,-0.072,-0.208,4.21,1.19,3.05
508575.390000,0.953,-0.097,-0.241,1.28,-1.8,2.72
508575.437000,0.951,-0.092,-0.228,1.95,-1.13,0.55
508575.484000,0.949,-0.084,-0.258,0.76,-0.79,-1.46
508575.531000,0.943,-0.058,-0.224,0.46,-0.73,-4.12
508575.578000,0.959,-0.078,-0.242,-0.27,-2.41,0.64
508575.625000,0.953,-0.076,-0.24,0.7,3.42,-2.47
508575.671000,0.934,-0.093,-0.222,0.82,-5.07,2.56
508575.718000,0.944,-0.09,-0.248,6.32,4.36,-1.8
508575.765000,0.957,-0.108,-0.252,5.13,2.04,0.85
508575.812000,0.948,-0.061,-0.226,-0.89,4.24,-2.32
508575.859000,0.952,-0.122,-0.185,7.63,1.59,2.47
508575.906000,0.962,-0.115,-0.06,9.64,5.55,-0.76
508575.953000,0.925,-0.18,0.204,32.07,-2.35,2.69
508576.000000,0.831,-0.095,0.45,62.5,-20.08,5.65
508576.046000,0.854,-0.003,0.467,55.02,-48.37,-2.2
508576.093000,0.839,-0.001,0.285,32.14,-106.69,18.74
508576.140000,1.013,-0.232,-0.083,56.61,-112.09,36.84
508576.187000,0.984,-0.35,-0.437,-27.74,-134.68,24.78
508576.234000,0.794,-0.229,-0.64,-5.1,-64.58,7.29
508576.281000,0.923,-0.314,-1.017,-24.72,-2.96,-13.21
508576.328000,0.629,0.016,-0.812,-24.9,10.16,-28.72
508576.375000,0.624,0.236,-0.787,-89.51,16.14,-37.11
