t_monotonic,ax,ay,az,gx,gy,gz
318668.203000,0.75,0.088,-0.712,-29.76,59.05,11.08
318668.218000,0.749,0.069,-0.695,-17.03,53.01,16.97
318668.218000,0.789,0.067,-0.689,-6.2,48.4,21.39
318668.234000,0.794,0.073,-0.705,2.23,45.5,23.9
318668.234000,0.804,0.092,-0.717,8.73,44.92,22.43
318668.250000,0.824,0.108,-0.755,10.71,46.36,20.08
318668.265000,0.812,0.103,-0.748,9.16,54.05,18.92
318668.265000,0.793,0.095,-0.698,2.72,57.71,16.85
318668.281000,0.79,0.069,-0.692,-6.62,53.56,15.63
318668.296000,0.793,0.041,-0.671,-13.0,50.75,14.19
318668.296000,0.822,0.024,-0.648,-14.4,49.84,11.44
318668.312000,0.802,0.02,-0.615,-11.66,51.76,8.94
318668.328000,0.793,0.044,-0.599,-10.01,48.37,5.98
318668.328000,0.79,0.058,-0.595,-8.85,43.28,5.89
318668.343000,0.795,0.052,-0.585,-6.74,39.83,6.62
318668.343000,0.806,0.04,-0.579,-4.06,39.31,6.62
318668.359000,0.777,0.039,-0.558,-1.19,40.44,5.8
318668.375000,0.769,0.064,-0.558,-1.25,37.45,4.88
318668.375000,0.764,0.079,-0.572,-2.38,36.99,7.87
318668.390000,0.742,0.074,-0.544,-1.13,38.94,11.14
318668.406000,0.746,0.065,-0.511,-1.04,35.28,12.97
318668.406000,0.745,0.048,-0.511,-0.18,30.15,14.74
318668.421000,0.73,0.037,-0.493,2.99,27.31,15.41
318668.421000,0.724,0.033,-0.467,5.74,22.4,15.9
318668.437000,0.733,0.013,-0.446,8.51,16.91,17.24
318668.453000,0.744,-0.013,-0.438,11.23,12.73,17.85
318668.468000,0.748,-0.009,-0.441,12.12,9.92,15.75
318668.468000,0.752,0.017,-0.44,9.92,8.0,12.6
318668.484000,0.766,0.026,-0.44,5.83,6.38,9.55
318668.484000,0.773,0.032,-0.451,-0.12,4.36,5.49
318668.500000,0.778,0.045,-0.454,-7.11,3.02,1.07
318668.515000,0.778,0.057,-0.446,-12.79,2.17,-1.95
318668.531000,0.783,0.058,-0.429,-16.91,0.37,-3.51
318668.531000,0.786,0.055,-0.425,-18.89,-2.62,-3.85
318668.546000,0.793,0.053,-0.443,-16.75,-3.02,-0.64
318668.546000,0.777,0.052,-0.453,-16.72,-7.63,1.4
318668.562000,0.761,0.046,-0.477,-18.31,-14.47,3.63
318668.578000,0.785,0.03,-0.528,-19.32,-16.3,4.58
318668.578000,0.799,0.02,-0.555,-20.14,-16.05,4.15
318668.593000,0.801,0.025,-0.571,-18.83,-14.56,4.52
318668.609000,0.785,0.02,-0.568,-17.03,-13.7,5.55
318668.609000,0.77,0.017,-0.581,-14.74,-14.01,7.08
318668.625000,0.751,0.016,-0.607,-10.16,-14.77,10.07
318668.625000,0.735,0.011,-0.611,-3.14,-14.8,14.95
318668.640000,0.749,-0.009,-0.597,4.03,-13.55,22.0
318668.656000,0.77,-0.046,-0.593,9.55,-11.69,28.41
318668.671000,0.793,-0.082,-0.588,12.54,-9.61,31.07
318668.671000,0.823,-0.11,-0.583,13.0,-8.61,28.2
318668.687000,0.839,-0.105,-0.603,10.1,-8.67,20.2
318668.687000,0.833,-0.057,-0.629,3.33,-6.99,9.28
318668.703000,0.828,-0.012,-0.631,-6.26,-3.91,0.15
318668.703000,0.814,-0.014,-0.625,-16.02,-1.46,-5.31
318668.718000,0.806,-0.051,-0.606,-23.01,0.58,-8.0
318668.734000,0.809,-0.088,-0.588,-24.41,1.68,-9.46
318668.734000,0.814,-0.085,-0.584,-21.73,1.92,-11.23
318668.750000,0.82,-0.049,-0.59,-17.15,2.41,-11.96
318668.765000,0.827,-0.021,-0.601,-13.15,2.72,-10.41
318668.765000,0.835,-0.001,-0.607,-9.77,3.23,-8.15
318668.781000,0.84,0.014,-0.604,-7.6,3.6,-6.44
318668.796000,0.839,0.021,-0.601,-6.35,3.75,-4.67
318668.796000,0.839,0.02,-0.595,-6.62,4.46,-2.81
318668.812000,0.837,0.014,-0.586,-6.93,5.55,-1.4
318668.812000,0.833,0.02,-0.591,-7.48,6.29,-0.85
318668.828000,0.833,0.041,-0.583,-9.8,8.61,0.09
318668.843000,0.844,0.032,-0.562,-12.15,12.42,2.41
318668.859000,0.845,0.012,-0.553,-13.28,15.84,2.72
318668.859000,0.838,0.03,-0.552,-15.08,17.52,-0.12
318668.875000,0.811,0.05,-0.528,-15.9,19.29,-2.14
318668.875000,0.806,0.059,-0.501,-16.85,16.91,-2.11
318668.890000,0.824,0.057,-0.508,-17.37,14.13,-0.34
318668.890000,0.824,0.05,-0.501,-15.66,16.91,2.29
318668.906000,0.811,0.052,-0.474,-12.73,18.98,3.69
318668.921000,0.802,0.059,-0.457,-10.07,17.21,4.58
318668.937000,0.789,0.067,-0.444,-8.88,11.57,5.28
318668.937000,0.794,0.062,-0.446,-8.64,5.71,6.13
318668.953000,0.788,0.067,-0.444,-9.13,-0.21,5.62
318668.953000,0.78,0.069,-0.442,-9.74,-5.22,5.95
318668.968000,0.774,0.066,-0.425,-9.4,-8.48,7.26
318668.968000,0.78,0.055,-0.426,-8.48,-10.53,8.79
318669.000000,0.756,0.051,-0.408,-6.74,-9.86,9.58
318669.000000,0.725,0.069,-0.381,-6.65,-13.95,9.09
318669.015000,0.73,0.069,-0.368,-6.71,-23.74,9.31
318669.031000,0.747,0.052,-0.368,-7.45,-34.24,9.98
318669.031000,0.735,0.046,-0.378,-7.69,-42.7,8.85
318669.046000,0.724,0.057,-0.426,-8.06,-50.78,7.32
318669.046000,0.713,0.06,-0.494,-9.46,-57.1,7.29
318669.062000,0.719,0.034,-0.573,-10.53,-60.61,8.58
318669.078000,0.735,0.002,-0.637,-10.62,-60.64,9.55
318669.078000,0.742,-0.016,-0.674,-10.1,-57.68,9.19
318669.093000,0.738,-0.016,-0.695,-8.06,-51.97,7.87
318669.109000,0.737,-0.018,-0.706,-4.67,-44.89,6.71
318669.109000,0.73,-0.017,-0.7,-1.8,-38.33,5.46
318669.125000,0.721,-0.017,-0.684,0.0,-32.72,4.94
318669.125000,0.721,-0.024,-0.678,0.43,-29.3,5.1
318669.140000,0.728,-0.023,-0.676,1.34,-27.01,4.06
318669.140000,0.735,-0.011,-0.693,1.46,-25.64,2.66
318669.156000,0.745,0.0,-0.704,1.77,-23.16,1.83
318669.171000,0.761,0.003,-0.715,3.33,-19.14,1.34
318669.187000,0.767,0.011,-0.735,4.64,-14.1,1.25
318669.187000,0.771,0.02,-0.725,4.67,-8.58,1.19
318669.187000,0.776,0.021,-0.705,3.75,-4.88,1.31
318669.203000,0.777,0.012,-0.688,3.2,-3.66,1.37
318669.218000,0.783,0.005,-0.68,3.33,-3.75,0.92
318669.234000,0.789,0.011,-0.688,3.39,-4.46,-0.21
318669.250000,0.792,0.031,-0.701,3.69,-4.3,-1.13
318669.250000,0.798,0.046,-0.708,4.06,-3.36,-0.85
318669.265000,0.799,0.049,-0.718,4.09,-1.83,0.15
318669.265000,0.799,0.048,-0.711,4.94,1.07,1.37
318669.281000,0.805,0.043,-0.694,6.26,3.14,2.84
318669.296000,0.806,0.043,-0.684,7.48,3.81,3.66
318669.296000,0.803,0.05,-0.685,7.54,3.91,4.15
318669.312000,0.797,0.061,-0.682,6.53,4.3,4.76
318669.328000,0.803,0.062,-0.665,5.1,4.67,5.1
318669.328000,0.801,0.056,-0.66,3.63,3.66,5.04
318669.343000,0.799,0.054,-0.658,2.44,2.75,4.3
318669.343000,0.792,0.055,-0.652,1.37,1.77,3.6
318669.359000,0.784,0.049,-0.646,1.01,0.7,3.33
318669.375000,0.788,0.035,-0.64,0.7,-1.04,3.39
318669.375000,0.787,0.026,-0.65,0.98,-3.11,2.87
318669.390000,0.778,0.03,-0.664,1.46,-3.66,2.2
318669.406000,0.776,0.032,-0.667,1.5,-3.05,2.14
318669.406000,0.778,0.03,-0.66,1.01,-2.56,2.26
318669.421000,0.778,0.022,-0.657,0.7,-2.84,2.08
318669.421000,0.775,0.022,-0.666,0.37,-3.27,1.4
318669.437000,0.77,0.018,-0.681,0.27,-3.11,0.67
318669.453000,0.767,0.009,-0.688,0.21,-2.32,0.49
318669.453000,0.77,0.006,-0.689,0.24,-0.49,0.34
318669.468000,0.771,0.001,-0.683,0.89,1.95,0.06
318669.484000,0.771,0.003,-0.674,1.25,3.91,-1.1
318669.484000,0.77,0.014,-0.671,0.98,4.61,-2.41
318669.500000,0.766,0.029,-0.67,-0.06,5.31,-3.23
318669.515000,0.757,0.036,-0.661,-0.98,6.44,-2.93
318669.515000,0.755,0.029,-0.642,-1.31,7.57,-1.95
318669.531000,0.752,0.023,-0.629,-1.22,7.45,-1.16
318669.546000,0.747,0.024,-0.625,-0.76,7.14,-0.95
318669.546000,0.744,0.035,-0.622,-0.76,6.93,-0.55
318669.562000,0.746,0.04,-0.617,-1.04,6.35,0.24
318669.562000,0.744,0.042,-0.611,-1.28,5.49,1.22
318669.578000,0.743,0.045,-0.609,-1.77,4.39,2.01
318669.593000,0.745,0.042,-0.609,-2.29,3.51,3.08
318669.593000,0.741,0.044,-0.61,-2.69,2.78,3.57
318669.593000,0.73,0.05,-0.614,-3.02,2.53,4.09
318669.625000,0.722,0.053,-0.611,-2.72,2.75,5.31
318669.640000,0.713,0.054,-0.61,-2.08,2.44,6.68
318669.640000,0.695,0.066,-0.617,-0.82,2.04,8.12
318669.656000,0.684,0.084,-0.615,1.56,2.29,10.47
318669.656000,0.68,0.081,-0.601,4.52,1.77,15.17
318669.671000,0.694,0.031,-0.574,7.9,0.67,21.49
318669.687000,0.723,-0.032,-0.563,11.47,-0.7,25.12
318669.687000,0.73,-0.042,-0.599,14.04,-2.35,22.1
318669.703000,0.729,0.002,-0.633,12.94,-2.53,15.44
318669.703000,0.738,0.03,-0.661,7.51,-1.22,9.7
318669.718000,0.742,0.029,-0.681,0.18,1.77,5.71
318669.718000,0.739,0.017,-0.67,-5.77,5.58,3.23
318669.734000,0.73,-0.004,-0.645,-7.45,8.33,2.69
318669.750000,0.728,-0.028,-0.62,-5.28,9.16,3.51
318669.765000,0.736,-0.036,-0.611,-1.25,8.21,4.3
318669.765000,0.747,-0.027,-0.617,2.47,6.26,5.1
318669.765000,0.757,-0.014,-0.633,4.7,4.76,5.55
318669.796000,0.763,-0.002,-0.649,4.67,4.09,5.37
318669.796000,0.772,0.005,-0.649,2.66,4.06,4.91
318669.812000,0.774,0.001,-0.646,0.64,4.79,4.09
318669.812000,0.767,0.0,-0.642,-0.52,5.68,3.11
318669.828000,0.76,0.002,-0.627,-1.13,6.07,3.45
318669.843000,0.763,-0.007,-0.608,-0.06,5.52,5.34
318669.843000,0.763,-0.025,-0.603,1.95,4.09,7.17
318669.859000,0.766,-0.031,-0.608,3.72,2.5,8.0
318669.875000,0.77,-0.026,-0.617,4.39,1.1,7.6
318669.875000,0.775,-0.02,-0.626,3.51,0.09,6.84
318669.890000,0.781,-0.025,-0.627,1.8,0.27,5.65
318669.906000,0.782,-0.028,-0.628,-0.18,1.31,3.85
318669.921000,0.776,-0.021,-0.623,-1.65,2.72,1.77
318669.921000,0.772,-0.011,-0.611,-2.75,3.45,0.52
318669.921000,0.759,-0.008,-0.609,-3.23,3.48,0.61
318669.937000,0.756,-0.007,-0.605,-3.39,3.3,1.74
318669.953000,0.752,-0.01,-0.598,-3.05,2.75,3.08
318669.968000,0.751,-0.019,-0.604,-2.41,1.95,4.43
318669.968000,0.753,-0.033,-0.607,-1.62,1.46,5.58
318669.984000,0.759,-0.039,-0.61,-1.22,0.95,5.49
318669.984000,0.759,-0.038,-0.615,-1.22,0.49,4.24
318670.000000,0.759,-0.033,-0.62,-1.62,0.15,2.62
318670.015000,0.758,-0.021,-0.624,-2.53,0.27,1.07
318670.015000,0.756,-0.013,-0.625,-3.6,0.92,0.76
318670.031000,0.752,-0.013,-0.625,-4.18,1.46,1.4
318670.046000,0.752,-0.021,-0.617,-3.78,2.17,2.41
318670.062000,0.759,-0.03,-0.606,-3.02,2.38,3.54
318670.062000,0.76,-0.03,-0.602,-2.2,2.17,3.72
318670.078000,0.752,-0.024,-0.602,-1.92,1.83,3.33
318670.078000,0.756,-0.025,-0.601,-2.11,1.37,3.08
318670.093000,0.757,-0.028,-0.602,-2.23,0.95,2.81
318670.093000,0.757,-0.036,-0.616,-1.89,0.92,2.62
318670.109000,0.757,-0.039,-0.632,-0.98,2.14,2.2
318670.125000,0.757,-0.041,-0.64,-0.76,5.98,0.95
318670.140000,0.76,-0.038,-0.634,-1.04,7.32,0.4
318670.140000,0.757,-0.037,-0.62,-0.85,7.6,-0.12
318670.156000,0.756,-0.038,-0.603,-0.46,6.29,-0.24
318670.156000,0.752,-0.035,-0.587,0.46,4.3,0.34
318670.171000,0.748,-0.034,-0.579,1.68,2.69,1.37
318670.187000,0.746,-0.029,-0.576,3.2,1.13,2.62
318670.187000,0.748,-0.029,-0.58,4.55,-0.46,3.81
318670.203000,0.746,-0.024,-0.581,5.13,-1.5,4.58
318670.218000,0.749,-0.024,-0.582,5.28,-2.29,5.25
318670.218000,0.756,-0.027,-0.587,5.1,-3.17,5.43
318670.234000,0.757,-0.024,-0.595,3.91,-4.03,4.91
318670.234000,0.754,-0.025,-0.604,3.08,-4.21,4.43
318670.250000,0.757,-0.035,-0.61,2.59,-4.15,3.88
318670.265000,0.759,-0.04,-0.608,2.17,-4.27,2.96
318670.265000,0.759,-0.038,-0.61,2.11,-4.64,1.86
318670.281000,0.756,-0.033,-0.622,2.38,-4.61,1.16
318670.281000,0.755,-0.027,-0.622,2.5,-4.18,1.13
318670.296000,0.754,-0.031,-0.619,2.9,-4.0,1.71
318670.312000,0.761,-0.041,-0.618,3.48,-3.94,2.44
318670.328000,0.764,-0.051,-0.621,4.67,-3.88,2.9
318670.328000,0.765,-0.046,-0.625,6.07,-3.75,2.56
318670.343000,0.769,-0.034,-0.627,6.26,-3.66,2.32
318670.359000,0.773,-0.028,-0.637,5.74,-2.81,2.5
318670.359000,0.774,-0.031,-0.64,4.94,-1.56,2.81
318670.359000,0.773,-0.037,-0.635,4.39,-0.89,2.62
318670.375000,0.77,-0.043,-0.635,3.81,-0.85,2.44
318670.390000,0.772,-0.045,-0.636,3.57,-0.61,1.77
318670.390000,0.768,-0.037,-0.642,3.3,-0.27,1.34
318670.406000,0.764,-0.032,-0.643,3.3,0.37,1.46
318670.421000,0.764,-0.036,-0.637,3.48,0.98,1.98
318670.437000,0.766,-0.042,-0.639,3.66,1.19,2.41
318670.437000,0.765,-0.042,-0.648,3.81,1.65,2.41
318670.437000,0.763,-0.042,-0.645,3.39,2.75,2.56
318670.468000,0.765,-0.047,-0.637,3.23,3.63,2.75
318670.468000,0.76,-0.053,-0.628,3.36,4.03,2.75
318670.484000,0.763,-0.061,-0.615,3.66,4.15,2.69
318670.500000,0.768,-0.06,-0.61,4.09,3.23,1.83
318670.500000,0.769,-0.052,-0.61,4.3,2.14,1.1
318670.515000,0.776,-0.047,-0.607,4.03,1.43,0.76
318670.515000,0.782,-0.045,-0.604,3.75,1.13,0.27
318670.515000,0.779,-0.04,-0.613,3.39,0.98,-0.67
318670.546000,0.776,-0.032,-0.618,2.23,1.01,-1.86
318670.546000,0.772,-0.025,-0.615,0.34,1.25,-2.32
318670.562000,0.769,-0.03,-0.609,-0.89,1.71,-1.95
318670.578000,0.768,-0.042,-0.605,-1.07,2.08,-1.65
318670.578000,0.762,-0.046,-0.597,-0.85,1.86,-1.59
318670.593000,0.753,-0.041,-0.597,-0.43,0.92,-1.56
318670.593000,0.752,-0.037,-0.601,0.03,-0.12,-1.31
318670.609000,0.754,-0.034,-0.605,0.31,-0.89,-0.64
318670.625000,0.754,-0.035,-0.608,0.37,-1.65,-0.15
318670.625000,0.757,-0.041,-0.608,0.61,-1.92,0.34
318670.640000,0.757,-0.045,-0.613,1.16,-2.47,0.37
318670.640000,0.757,-0.04,-0.615,1.46,-2.47,0.15
318670.671000,0.759,-0.035,-0.621,1.65,-2.11,0.06
318670.671000,0.756,-0.033,-0.626,1.53,-1.62,-0.18
318670.687000,0.756,-0.034,-0.629,0.98,-1.07,-0.49
318670.687000,0.755,-0.037,-0.644,0.06,-0.82,-0.82
318670.703000,0.754,-0.035,-0.648,-1.13,0.46,-1.25
318670.703000,0.754,-0.039,-0.636,-1.95,2.01,-1.71
318670.703000,0.752,-0.046,-0.629,-2.04,2.72,-2.04
318670.718000,0.755,-0.048,-0.622,-1.43,2.75,-2.5
318670.734000,0.754,-0.043,-0.618,-0.4,2.47,-2.72
318670.734000,0.75,-0.039,-0.62,1.28,2.08,-2.2
318670.765000,0.756,-0.036,-0.612,2.87,1.86,-1.28
318670.765000,0.766,-0.037,-0.608,4.24,1.28,-0.24
318670.781000,0.773,-0.041,-0.615,5.25,0.82,0.43
318670.781000,0.773,-0.033,-0.619,5.19,1.01,0.0
318670.796000,0.77,-0.023,-0.621,4.21,1.5,-0.55
318670.812000,0.772,-0.025,-0.619,3.11,1.83,-0.46
318670.828000,0.771,-0.032,-0.619,2.32,2.14,-0.52
318670.828000,0.769,-0.034,-0.616,1.65,2.35,-0.58
318670.843000,0.766,-0.034,-0.611,1.71,2.23,-0.49
318670.843000,0.764,-0.037,-0.609,1.98,1.89,-0.06
318670.859000,0.766,-0.037,-0.607,2.2,1.46,0.4
318670.875000,0.764,-0.037,-0.608,2.59,1.1,0.7
318670.875000,0.767,-0.04,-0.605,2.47,0.7,0.85
318670.890000,0.773,-0.041,-0.608,2.01,0.4,0.92
318670.906000,0.771,-0.036,-0.615,1.4,0.58,0.31
318670.906000,0.77,-0.028,-0.614,-0.03,1.1,-0.55
318670.921000,0.773,-0.034,-0.615,-1.77,1.46,-1.07
318670.921000,0.774,-0.045,-0.611,-3.36,1.68,-2.01
318670.937000,0.768,-0.044,-0.611,-4.55,1.5,-3.05
318670.953000,0.763,-0.04,-0.607,-5.13,1.65,-3.72
318670.968000,0.764,-0.041,-0.606,-4.55,1.28,-3.66
318670.968000,0.762,-0.04,-0.61,-3.69,0.49,-2.93
318670.984000,0.762,-0.038,-0.612,-2.44,0.49,-1.71
318670.984000,0.765,-0.037,-0.609,-0.82,0.85,-0.37
318671.000000,0.763,-0.036,-0.609,1.07,0.89,1.04
318671.015000,0.763,-0.042,-0.611,2.56,0.89,2.23
318671.015000,0.769,-0.05,-0.611,3.42,0.92,2.59
318671.031000,0.766,-0.055,-0.618,3.51,0.73,2.41
318671.031000,0.765,-0.055,-0.627,2.35,1.07,1.37
318671.046000,0.766,-0.053,-0.622,0.7,2.04,0.0
318671.046000,0.765,-0.054,-0.62,-0.49,2.69,-1.1
318671.078000,0.765,-0.054,-0.617,-0.67,3.05,-1.86
318671.078000,0.762,-0.052,-0.606,-0.27,3.39,-2.11
318671.093000,0.764,-0.051,-0.6,0.7,3.36,-1.65
318671.093000,0.768,-0.055,-0.596,2.2,2.96,-0.95
318671.125000,0.767,-0.052,-0.604,3.57,2.35,-0.76
318671.125000,0.764,-0.045,-0.609,4.12,2.14,-0.64
318671.125000,0.763,-0.045,-0.606,4.55,2.29,-0.31
318671.140000,0.764,-0.045,-0.601,5.1,2.44,0.15
318671.156000,0.762,-0.042,-0.604,5.55,2.62,0.34
318671.156000,0.764,-0.035,-0.602,5.8,2.84,0.43
318671.171000,0.766,-0.028,-0.601,5.31,2.75,0.76
318671.187000,0.765,-0.024,-0.6,4.43,2.72,1.25
318671.187000,0.763,-0.031,-0.595,3.39,2.99,1.92
318671.203000,0.764,-0.042,-0.583,2.84,3.14,2.17
318671.218000,0.766,-0.051,-0.58,2.75,2.32,1.86
318671.218000,0.766,-0.051,-0.587,2.81,1.53,1.13
318671.234000,0.764,-0.044,-0.591,2.35,0.98,0.34
318671.234000,0.767,-0.036,-0.591,1.5,0.7,-0.09
318671.250000,0.77,-0.037,-0.595,0.7,0.34,-0.09
318671.250000,0.767,-0.041,-0.604,0.4,0.4,-0.18
318671.265000,0.765,-0.041,-0.601,0.24,0.85,-0.06
318671.281000,0.765,-0.042,-0.592,0.7,1.31,0.43
318671.281000,0.768,-0.049,-0.592,1.56,1.22,1.1
318671.296000,0.774,-0.05,-0.594,1.83,1.04,1.16
318671.296000,0.775,-0.04,-0.597,1.34,0.76,0.7
318671.328000,0.773,-0.035,-0.6,0.37,0.73,0.7
318671.328000,0.775,-0.037,-0.595,-0.52,1.16,0.95
318671.343000,0.775,-0.045,-0.595,-1.25,0.98,1.28
318671.343000,0.767,-0.053,-0.599,-1.19,0.92,1.43
318671.359000,0.769,-0.057,-0.594,-0.55,0.85,1.46
318671.375000,0.769,-0.062,-0.596,0.31,-0.03,1.65
318671.375000,0.768,-0.059,-0.6,1.31,-0.34,1.83
318671.390000,0.767,-0.05,-0.602,2.38,-0.06,2.01
318671.390000,0.766,-0.043,-0.603,2.59,0.31,2.38
318671.406000,0.767,-0.046,-0.605,2.56,0.61,3.08
318671.421000,0.771,-0.054,-0.599,2.44,0.89,3.54
318671.421000,0.771,-0.066,-0.6,2.44,0.49,3.66
318671.437000,0.768,-0.073,-0.602,2.32,0.31,2.75
318671.453000,0.769,-0.069,-0.602,2.01,0.4,1.46
318671.468000,0.771,-0.065,-0.6,1.71,0.4,0.43
318671.468000,0.768,-0.061,-0.6,1.28,0.43,-0.46
318671.484000,0.769,-0.052,-0.597,0.82,0.52,-0.92
318671.500000,0.777,-0.046,-0.588,1.01,0.49,-0.82
318671.500000,0.776,-0.04,-0.596,1.19,0.18,-0.55
318671.515000,0.765,-0.033,-0.598,1.5,0.43,0.24
318671.515000,0.766,-0.04,-0.593,2.14,0.76,1.8
318671.531000,0.767,-0.054,-0.595,2.81,0.34,2.99
318671.546000,0.764,-0.063,-0.597,3.54,-0.15,3.48
318671.546000,0.767,-0.069,-0.592,4.33,-0.21,3.57
318671.546000,0.776,-0.068,-0.597,4.91,-0.82,3.17
318671.578000,0.771,-0.057,-0.61,4.52,-1.53,2.11
318671.578000,0.766,-0.051,-0.609,3.75,-0.64,1.59
318671.593000,0.771,-0.06,-0.6,3.36,0.21,1.77
318671.609000,0.772,-0.065,-0.596,2.66,0.03,1.43
318671.609000,0.773,-0.061,-0.596,2.29,-0.03,0.85
318671.625000,0.777,-0.054,-0.598,2.53,0.06,1.13
318671.625000,0.78,-0.051,-0.599,2.66,0.27,1.53
318671.640000,0.784,-0.045,-0.598,2.47,0.12,1.8
318671.656000,0.782,-0.046,-0.6,2.53,-0.31,2.41
318671.656000,0.782,-0.054,-0.605,3.02,-0.21,3.08
318671.671000,0.786,-0.056,-0.605,3.3,-0.03,3.2
318671.687000,0.784,-0.055,-0.608,3.02,-0.18,2.84
318671.687000,0.78,-0.057,-0.612,2.56,-0.24,2.41
318671.703000,0.783,-0.065,-0.611,0.95,0.46,0.95
318671.718000,0.786,-0.067,-0.608,0.31,0.92,-0.37
318671.718000,0.778,-0.061,-0.609,-0.03,1.68,-1.19
318671.734000,0.771,-0.053,-0.608,-0.7,2.47,-1.5
318671.734000,0.761,-0.046,-0.605,-1.46,3.27,-1.31
318671.750000,0.756,-0.055,-0.575,-2.17,2.93,-0.98
318671.750000,0.764,-0.063,-0.573,-2.59,1.22,-1.01
318671.765000,0.772,-0.058,-0.579,-2.96,-0.49,-1.83
318671.781000,0.781,-0.042,-0.589,-3.63,-1.19,-2.5
318671.796000,0.79,-0.03,-0.602,-4.7,-1.4,-2.69
318671.796000,0.79,-0.028,-0.606,-6.2,-1.25,-2.81
318671.812000,0.79,-0.035,-0.604,-7.32,-0.98,-2.32
318671.812000,0.796,-0.045,-0.601,-7.81,-0.7,-1.77
318671.828000,0.791,-0.05,-0.611,-7.72,-0.37,-1.74
318671.843000,0.782,-0.051,-0.612,-7.45,0.49,-1.53
318671.843000,0.777,-0.058,-0.605,-7.2,0.85,-1.25
318671.859000,0.776,-0.068,-0.605,-7.05,0.21,-1.28
318671.875000,0.772,-0.074,-0.612,-6.78,-0.4,-1.62
318671.875000,0.768,-0.072,-0.61,-6.16,-0.03,-1.83
318671.890000,0.768,-0.074,-0.605,-5.01,0.21,-1.46
318671.906000,0.767,-0.077,-0.609,-4.24,-0.03,-1.01
318671.906000,0.766,-0.076,-0.613,-3.54,-0.37,-0.82
318671.921000,0.767,-0.071,-0.611,-2.75,-0.49,-0.43
318671.937000,0.771,-0.073,-0.606,-1.5,-0.4,0.24
318671.953000,0.766,-0.073,-0.607,-0.37,-0.46,0.73
318671.953000,0.759,-0.071,-0.611,0.89,-0.37,1.43
318671.968000,0.753,-0.073,-0.607,2.2,-0.24,2.17
318671.968000,0.749,-0.087,-0.606,3.85,-0.49,3.39
318671.968000,0.747,-0.1,-0.604,5.74,-0.58,3.91
318671.984000,0.741,-0.104,-0.597,7.97,-0.7,3.81
318672.000000,0.735,-0.104,-0.589,10.9,-1.28,3.97
318672.015000,0.731,-0.109,-0.584,14.22,-2.62,4.85
318672.015000,0.728,-0.118,-0.575,18.1,-4.36,6.2
318672.031000,0.728,-0.126,-0.563,23.38,-6.38,7.87
318672.046000,0.734,-0.136,-0.553,29.21,-8.58,9.46
318672.046000,0.74,-0.139,-0.553,33.57,-11.08,10.13
318672.062000,0.748,-0.134,-0.561,36.62,-12.88,9.95
318672.078000,0.756,-0.125,-0.584,38.33,-14.1,9.09
318672.078000,0.756,-0.108,-0.612,37.32,-13.92,7.69
318672.093000,0.763,-0.089,-0.627,32.96,-11.81,5.89
318672.109000,0.771,-0.08,-0.632,25.09,-8.88,3.69
318672.109000,0.776,-0.077,-0.621,15.56,-6.01,1.13
318672.125000,0.779,-0.08,-0.613,6.13,-4.18,-1.8
318672.125000,0.777,-0.09,-0.606,-1.86,-2.9,-4.58
318672.140000,0.772,-0.099,-0.602,-7.69,-2.78,-6.9
318672.156000,0.775,-0.104,-0.615,-11.29,-3.78,-8.58
318672.156000,0.778,-0.1,-0.636,-13.0,-4.88,-9.52
318672.171000,0.78,-0.091,-0.656,-13.21,-4.91,-9.58
318672.187000,0.797,-0.076,-0.67,-13.0,-3.97,-8.94
318672.187000,0.806,-0.066,-0.687,-11.96,-2.44,-7.35
318672.203000,0.807,-0.063,-0.691,-10.22,0.24,-5.43
318672.218000,0.809,-0.062,-0.68,-8.51,3.2,-3.75
318672.218000,0.807,-0.065,-0.67,-6.47,5.46,-2.35
318672.234000,0.806,-0.072,-0.654,-4.55,7.32,-1.59
318672.234000,0.804,-0.072,-0.638,-2.87,8.39,-1.31
318672.250000,0.789,-0.063,-0.616,-1.56,8.97,-1.68
318672.265000,0.777,-0.06,-0.591,-0.21,8.7,-1.74
318672.265000,0.773,-0.062,-0.568,1.31,6.78,-1.8
318672.281000,0.771,-0.051,-0.549,3.2,3.97,-1.95
318672.296000,0.768,-0.032,-0.549,5.16,0.79,-1.13
318672.296000,0.774,-0.021,-0.558,6.29,-1.68,0.52
318672.312000,0.791,-0.017,-0.561,6.01,-3.6,2.41
318672.328000,0.799,-0.013,-0.563,5.1,-5.1,3.97
318672.328000,0.793,-0.019,-0.576,4.7,-6.56,5.77
318672.343000,0.795,-0.033,-0.592,3.69,-8.03,7.42
318672.343000,0.793,-0.034,-0.599,1.5,-8.91,8.27
318672.359000,0.785,-0.042,-0.604,0.46,-9.34,9.49
318672.375000,0.776,-0.06,-0.615,0.58,-9.13,11.05
318672.375000,0.772,-0.075,-0.621,0.58,-8.36,12.15
318672.390000,0.768,-0.084,-0.634,0.12,-7.45,12.6
318672.406000,0.767,-0.091,-0.639,-1.04,-6.16,12.67
318672.406000,0.764,-0.101,-0.64,-2.9,-4.79,12.15
318672.421000,0.759,-0.113,-0.638,-4.97,-3.02,11.05
318672.437000,0.75,-0.126,-0.637,-7.11,-1.92,9.49
318672.437000,0.74,-0.138,-0.63,-8.61,-0.82,7.35
318672.453000,0.73,-0.136,-0.619,-9.19,0.0,5.19
318672.453000,0.717,-0.131,-0.61,-9.09,0.52,3.23
318672.468000,0.704,-0.126,-0.611,-8.55,0.43,1.71
318672.484000,0.692,-0.13,-0.621,-7.2,-0.34,1.1
318672.484000,0.692,-0.136,-0.627,-5.62,-0.89,1.4
318672.500000,0.7,-0.136,-0.626,-3.81,-0.58,1.8
318672.515000,0.712,-0.132,-0.628,-1.59,0.09,1.83
318672.531000,0.718,-0.122,-0.646,-0.85,0.58,0.92
318672.531000,0.716,-0.107,-0.653,-1.8,2.01,-0.52
318672.546000,0.716,-0.098,-0.647,-3.33,3.6,-1.53
318672.546000,0.717,-0.103,-0.64,-4.43,4.24,-2.29
318672.562000,0.716,-0.106,-0.628,-4.46,4.39,-3.17
318672.562000,0.716,-0.097,-0.619,-3.85,4.3,-3.54
318672.578000,0.719,-0.089,-0.615,-3.02,4.12,-3.08
318672.578000,0.719,-0.085,-0.616,-1.95,4.15,-2.56
318672.609000,0.716,-0.076,-0.616,-1.65,3.57,-2.29
318672.609000,0.72,-0.066,-0.615,-1.89,3.39,-2.11
318672.625000,0.725,-0.062,-0.613,-2.47,3.78,-1.53
318672.625000,0.722,-0.056,-0.604,-2.96,4.55,-1.43
318672.640000,0.717,-0.062,-0.586,-3.05,4.61,-1.4
318672.656000,0.713,-0.071,-0.569,-2.96,3.63,-1.68
318672.656000,0.714,-0.078,-0.554,-2.96,1.62,-2.32
318672.671000,0.71,-0.08,-0.546,-3.42,-0.98,-3.54
318672.687000,0.711,-0.08,-0.547,-4.79,-3.42,-5.34
318672.687000,0.719,-0.075,-0.55,-8.24,-5.74,-8.03
318672.703000,0.73,-0.068,-0.571,-14.04,-7.87,-11.78
318672.718000,0.75,-0.044,-0.596,-22.37,-8.67,-17.37
318672.718000,0.756,-0.006,-0.61,-32.44,-7.87,-23.47
318672.734000,0.753,0.015,-0.619,-42.02,-6.53,-27.62
318672.734000,0.756,0.004,-0.616,-49.01,-4.52,-29.51
318672.750000,0.752,-0.015,-0.602,-51.18,-3.45,-29.88
318672.765000,0.736,-0.029,-0.595,-48.16,-4.39,-28.69
318672.765000,0.726,-0.024,-0.6,-40.96,-6.04,-25.97
318672.781000,0.721,-0.012,-0.615,-32.04,-8.0,-21.33
318672.796000,0.725,-0.006,-0.632,-23.22,-9.8,-15.02
318672.796000,0.73,-0.002,-0.65,-15.44,-11.32,-9.06
318672.812000,0.734,-0.003,-0.664,-8.45,-11.99,-3.27
318672.828000,0.752,-0.021,-0.662,-2.26,-12.09,1.89
318672.843000,0.773,-0.042,-0.67,3.36,-12.42,5.07
318672.843000,0.78,-0.039,-0.693,7.17,-12.27,5.4
318672.859000,0.786,-0.02,-0.705,7.9,-10.71,4.58
318672.859000,0.795,-0.015,-0.709,6.32,-8.24,4.03
318672.875000,0.793,-0.022,-0.705,4.0,-5.34,2.75
318672.875000,0.786,-0.026,-0.689,1.98,-2.78,0.85
318672.890000,0.78,-0.028,-0.675,0.82,-1.56,-0.61
318672.906000,0.779,-0.033,-0.66,0.49,-1.19,-1.16
318672.906000,0.781,-0.033,-0.657,1.01,-1.25,-1.4
318672.921000,0.781,-0.021,-0.666,1.53,-1.8,-1.46
318672.921000,0.786,-0.003,-0.672,1.65,-2.04,-1.01
318672.937000,0.791,0.005,-0.677,1.46,-1.65,-0.06
318672.953000,0.795,0.005,-0.683,1.16,-0.52,0.79
318672.953000,0.793,0.007,-0.676,0.82,0.82,1.65
318672.968000,0.792,-0.001,-0.666,1.04,1.95,2.66
318672.968000,0.792,-0.01,-0.654,1.37,2.41,3.36
318672.984000,0.799,-0.005,-0.655,1.37,2.2,3.23
318672.984000,0.817,0.018,-0.668,-0.24,1.86,2.38
318673.015000,0.826,0.059,-0.682,-4.33,2.41,1.62
318673.015000,0.812,0.091,-0.69,-9.92,4.88,2.84
318673.031000,0.792,0.086,-0.656,-14.62,8.73,6.5
318673.046000,0.788,0.038,-0.608,-16.39,11.08,11.2
318673.046000,0.776,-0.01,-0.583,-16.33,10.47,13.67
318673.062000,0.765,-0.034,-0.573,-14.8,8.21,13.89
318673.078000,0.762,-0.037,-0.578,-13.58,4.73,12.79
318673.078000,0.761,-0.029,-0.591,-13.61,1.25,10.77
318673.093000,0.754,-0.02,-0.61,-15.02,-1.37,8.48
318673.093000,0.749,-0.018,-0.617,-17.18,-2.11,6.35
318673.109000,0.747,-0.023,-0.611,-19.2,-1.8,4.36
318673.125000,0.732,-0.026,-0.609,-20.6,-1.68,2.47
318673.125000,0.717,-0.02,-0.596,-20.66,-1.34,1.13
318673.140000,0.707,-0.015,-0.576,-19.65,-1.83,0.85
318673.156000,0.696,-0.014,-0.581,-17.4,-3.51,1.59
318673.156000,0.692,-0.018,-0.588,-14.1,-5.07,2.62
318673.171000,0.695,-0.021,-0.591,-10.96,-6.93,4.18
318673.171000,0.695,-0.022,-0.613,-7.51,-8.18,5.98
318673.187000,0.685,-0.016,-0.634,-3.85,-7.66,7.6
318673.187000,0.67,-0.017,-0.631,-0.27,-6.13,9.37
318673.203000,0.674,-0.031,-0.619,2.96,-5.31,11.2
318673.218000,0.683,-0.05,-0.624,5.65,-5.86,12.42
318673.218000,0.686,-0.064,-0.622,8.67,-5.86,12.12
318673.234000,0.688,-0.077,-0.622,11.87,-5.43,10.65
318673.250000,0.693,-0.088,-0.627,14.77,-4.85,8.09
318673.265000,0.697,-0.089,-0.634,15.41,-4.46,4.82
318673.281000,0.699,-0.076,-0.649,10.47,-4.09,-2.01
318673.281000,0.703,-0.06,-0.653,6.5,-3.39,-5.01
318673.296000,0.72,-0.053,-0.653,3.27,-2.29,-7.6
318673.296000,0.729,-0.044,-0.65,1.31,-1.07,-9.13
318673.312000,0.726,-0.036,-0.644,0.98,-0.31,-9.52
318673.328000,0.722,-0.032,-0.637,1.31,-0.95,-9.28
318673.328000,0.723,-0.024,-0.644,2.04,-2.32,-8.48
318673.343000,0.726,-0.02,-0.65,3.45,-2.84,-7.75
318673.343000,0.733,-0.008,-0.657,4.61,-3.42,-6.81
318673.359000,0.741,0.002,-0.668,5.62,-3.97,-4.97
318673.375000,0.752,0.002,-0.671,6.41,-3.81,-3.2
318673.375000,0.749,0.001,-0.673,6.71,-3.17,-1.95
318673.390000,0.754,-0.003,-0.659,7.63,-1.83,-1.19
318673.406000,0.767,-0.013,-0.654,7.9,-1.74,-0.85
318673.406000,0.761,-0.014,-0.666,7.54,-2.32,-2.04
318673.421000,0.76,-0.001,-0.667,6.13,-2.47,-3.75
318673.437000,0.755,0.009,-0.677,4.27,-2.78,-4.7
318673.437000,0.746,0.009,-0.678,2.96,-2.23,-4.43
318673.453000,0.745,0.001,-0.669,2.59,-1.59,-3.78
318673.468000,0.746,-0.008,-0.66,3.27,-1.53,-3.23
318673.468000,0.75,-0.004,-0.664,4.39,-1.92,-2.93
318673.484000,0.749,0.007,-0.67,4.97,-2.04,-2.75
318673.484000,0.753,0.007,-0.67,4.7,-1.56,-2.66
318673.500000,0.757,0.005,-0.679,3.14,-1.04,-2.99
318673.515000,0.755,0.008,-0.681,0.95,-0.06,-4.43
318673.515000,0.756,0.011,-0.676,-0.92,0.79,-5.8
318673.531000,0.755,0.016,-0.679,-1.83,1.04,-6.5
318673.546000,0.744,0.024,-0.677,-1.71,1.77,-6.29
318673.546000,0.731,0.024,-0.673,-0.24,2.59,-4.61
318673.562000,0.73,0.013,-0.656,2.17,2.99,-1.8
318673.578000,0.732,0.002,-0.65,4.88,2.35,0.4
318673.578000,0.725,0.006,-0.655,7.26,1.89,1.43
318673.593000,0.714,0.012,-0.654,9.09,1.89,2.11
318673.593000,0.704,0.012,-0.643,9.92,1.68,2.84
318673.609000,0.688,0.008,-0.631,10.32,0.67,3.6
318673.625000,0.674,-0.001,-0.624,10.9,-0.03,4.12
318673.640000,0.655,-0.01,-0.617,12.18,-0.46,4.33
318673.640000,0.626,-0.015,-0.606,14.19,-1.04,4.24
318673.656000,0.581,-0.017,-0.599,16.91,-2.59,4.49
318673.656000,0.521,-0.029,-0.594,21.18,-4.64,5.37
318673.656000,0.447,-0.045,-0.579,27.59,-6.5,6.81
318673.671000,0.415,-0.079,-0.511,36.81,-8.45,9.67
318673.687000,0.404,-0.134,-0.453,49.01,-14.53,12.94
318673.703000,0.354,-0.164,-0.44,63.78,-21.36,14.89
318673.703000,0.332,-0.158,-0.401,81.09,-25.88,16.3
318673.703000,0.302,-0.125,-0.36,99.64,-33.36,17.24
318673.734000,0.277,-0.091,-0.342,117.83,-43.82,20.42
318673.734000,0.24,-0.071,-0.331,134.37,-53.35,24.96
318673.750000,0.199,-0.042,-0.317,146.55,-60.06,31.04
318673.750000,0.174,-0.008,-0.301,153.42,-65.1,38.97
318673.765000,0.153,0.004,-0.286,157.96,-70.65,47.85
318673.765000,0.176,-0.018,-0.248,163.06,-77.76,56.34
318673.796000,0.192,-0.035,-0.232,166.33,-88.41,61.46
318673.796000,0.163,-0.038,-0.235,167.67,-99.61,63.02
318673.796000,0.121,-0.048,-0.217,168.25,-110.9,63.72
318673.828000,0.082,-0.084,-0.203,168.43,-126.56,64.85
318673.828000,0.03,-0.11,-0.203,168.31,-144.84,64.91
318673.828000,-0.02,-0.127,-0.21,167.36,-164.68,67.17
318673.859000,-0.029,-0.153,-0.274,167.85,-183.66,72.42
318673.859000,-0.039,-0.146,-0.401,162.39,-203.53,77.79
318673.875000,-0.064,-0.121,-0.505,150.98,-219.79,87.04
318673.875000,-0.073,-0.138,-0.533,139.16,-229.8,101.9
318673.890000,-0.218,-0.188,-0.553,126.07,-247.6,121.74
318673.906000,-0.175,-0.332,-0.625,118.23,-262.49,148.81
318673.906000,-0.217,-0.471,-0.708,116.92,-270.55,161.93
318673.921000,-0.323,-0.552,-0.739,117.62,-282.6,165.78
318673.937000,-0.372,-0.614,-0.76,119.79,-298.47,169.93
318673.937000,-0.417,-0.706,-0.75,129.28,-315.62,178.93
318673.953000,-0.455,-0.827,-0.707,147.13,-330.0,189.34
318673.953000,-0.506,-0.96,-0.689,167.0,-331.1,199.22
318673.968000,-0.513,-1.081,-0.726,188.15,-315.81,204.78
318673.984000,-0.599,-1.161,-0.659,214.12,-271.89,202.4
318673.984000,-0.714,-1.226,-0.463,249.03,-229.22,201.85
318674.000000,-0.644,-1.32,-0.314,293.83,-212.13,203.65
318674.015000,-0.817,-1.434,-0.147,363.08,-181.34,195.38
318674.015000,-0.931,-1.526,0.078,445.08,-155.58,202.55
318674.031000,-0.899,-1.626,0.121,522.97,-144.2,209.39
318674.031000,-0.873,-1.696,-0.066,583.06,-142.09,212.93
318674.062000,-0.871,-1.627,-0.31,596.76,-154.61,209.97
318674.062000,-0.842,-1.522,-0.47,557.27,-173.83,204.41
318674.078000,-0.84,-1.467,-0.562,482.96,-176.21,196.33
318674.078000,-0.656,-1.435,-0.518,389.14,-161.23,190.92
318674.093000,-0.522,-1.386,-0.347,299.08,-116.34,172.12
318674.093000,-0.472,-1.278,-0.114,219.52,-64.82,144.69
318674.109000,-0.515,-1.225,0.153,167.76,-3.57,119.05
318674.125000,-0.708,-1.15,0.374,133.52,34.33,99.28
318674.125000,-0.762,-1.138,0.456,105.41,43.34,99.67
318674.140000,-0.98,-1.156,0.412,84.11,40.74,123.51
318674.140000,-0.404,-1.301,0.5,86.83,49.17,128.21
318674.156000,-0.851,-1.129,0.174,43.43,-32.07,99.98
318674.171000,-0.797,-1.183,0.023,20.29,-31.62,113.71
318674.187000,-0.675,-1.27,0.143,15.96,-10.93,111.88
318674.187000,-0.754,-1.255,0.141,4.7,-12.54,105.62
318674.203000,-0.769,-1.223,0.122,6.84,-10.77,103.7
318674.218000,-0.75,-1.172,0.122,14.95,-4.36,99.83
318674.218000,-0.726,-1.089,0.104,23.77,4.7,93.23
318674.234000,-0.686,-0.988,0.089,31.4,16.91,84.63
318674.234000,-0.681,-0.908,0.057,32.62,29.02,74.8
318674.250000,-0.688,-0.837,0.021,22.58,37.17,67.2
318674.265000,-0.71,-0.798,-0.026,3.45,41.72,64.06
318674.265000,-0.758,-0.78,-0.038,-20.08,46.45,62.75
318674.281000,-0.796,-0.791,0.006,-37.48,52.31,63.02
318674.296000,-0.809,-0.8,0.065,-41.47,58.05,62.69
318674.312000,-0.826,-0.792,0.094,-37.29,60.3,62.23
318674.312000,-0.843,-0.772,0.095,-28.63,61.77,63.23
318674.328000,-0.845,-0.743,0.091,-19.17,64.09,64.03
318674.328000,-0.837,-0.722,0.06,-14.56,65.71,64.24
318674.343000,-0.814,-0.718,0.009,-18.13,65.74,64.82
318674.359000,-0.813,-0.723,-0.017,-28.9,65.58,64.7
318674.359000,-0.836,-0.721,-0.008,-41.32,66.56,62.07
318674.375000,-0.856,-0.73,0.035,-49.17,68.54,57.99
318674.375000,-0.874,-0.742,0.099,-46.51,71.41,52.46
318674.375000,-0.895,-0.749,0.138,-35.95,72.27,47.27
318674.390000,-0.904,-0.746,0.153,-22.68,70.86,43.95
318674.406000,-0.902,-0.742,0.164,-7.57,69.73,42.66
318674.421000,-0.899,-0.73,0.166,6.26,68.88,41.14
318674.421000,-0.898,-0.701,0.159,15.87,67.81,39.0
318674.437000,-0.894,-0.672,0.158,20.69,66.68,37.05
318674.453000,-0.892,-0.647,0.167,21.58,65.03,34.7
318674.468000,-0.893,-0.622,0.184,19.75,62.56,31.56
318674.468000,-0.891,-0.609,0.203,18.49,59.57,28.05
318674.468000,-0.887,-0.601,0.226,19.47,56.25,24.32
318674.484000,-0.88,-0.584,0.243,21.79,52.19,20.45
318674.484000,-0.882,-0.553,0.247,23.93,47.52,16.42
318674.515000,-0.884,-0.529,0.244,25.45,42.82,13.86
318674.531000,-0.877,-0.527,0.251,27.34,38.48,13.28
318674.531000,-0.861,-0.541,0.254,32.32,33.81,13.79
318674.546000,-0.856,-0.544,0.24,39.77,29.05,13.95
318674.562000,-0.862,-0.529,0.225,47.21,25.39,13.28
318674.562000,-0.86,-0.538,0.207,57.28,24.05,12.82
318674.578000,-0.857,-0.544,0.19,68.67,23.71,9.83
318674.578000,-0.864,-0.525,0.184,77.49,22.55,4.91
318674.593000,-0.878,-0.519,0.166,84.38,20.11,0.18
318674.593000,-0.888,-0.511,0.137,88.14,17.43,-3.78
318674.609000,-0.899,-0.488,0.113,87.56,15.38,-7.39
318674.625000,-0.908,-0.462,0.097,83.47,14.07,-9.64
318674.625000,-0.912,-0.442,0.081,77.33,13.4,-10.13
318674.640000,-0.918,-0.426,0.07,69.15,13.0,-9.46
318674.640000,-0.923,-0.413,0.065,59.82,12.94,-7.84
318674.656000,-0.926,-0.407,0.071,49.96,13.46,-5.65
318674.671000,-0.928,-0.41,0.077,41.51,13.76,-3.33
318674.687000,-0.926,-0.416,0.089,35.43,13.67,-1.25
318674.687000,-0.921,-0.42,0.105,32.04,13.31,0.49
318674.703000,-0.918,-0.417,0.106,30.24,12.33,2.26
318674.703000,-0.914,-0.411,0.096,28.29,10.96,4.67
318674.718000,-0.91,-0.406,0.084,25.27,10.16,7.45
318674.734000,-0.906,-0.4,0.08,21.36,10.41,10.07
318674.734000,-0.897,-0.397,0.078,16.05,10.83,12.09
318674.750000,-0.894,-0.39,0.074,9.19,10.77,13.82
318674.750000,-0.893,-0.385,0.069,1.13,10.71,15.72
318674.765000,-0.896,-0.387,0.074,-7.42,11.14,17.76
318674.781000,-0.902,-0.401,0.092,-14.1,11.96,19.68
318674.781000,-0.904,-0.413,0.107,-18.49,11.96,21.09
318674.796000,-0.906,-0.416,0.112,-21.55,10.56,22.52
318674.796000,-0.913,-0.418,0.111,-23.19,9.03,24.54
318674.828000,-0.913,-0.423,0.106,-24.26,8.15,27.47
318674.828000,-0.91,-0.425,0.098,-26.67,7.48,29.91
318674.843000,-0.906,-0.429,0.096,-30.43,6.96,31.62
318674.859000,-0.904,-0.43,0.095,-42.63,4.49,33.94
318674.859000,-0.905,-0.426,0.093,-49.87,3.05,35.62
318674.875000,-0.909,-0.429,0.086,-57.25,2.11,36.9
318674.875000,-0.91,-0.432,0.078,-65.43,1.43,37.57
318674.890000,-0.915,-0.43,0.076,-72.15,0.0,38.24
318674.906000,-0.924,-0.437,0.09,-73.76,-1.56,40.07
318674.921000,-0.923,-0.49,0.12,-70.07,-4.36,42.7
318674.921000,-0.929,-0.507,0.129,-63.23,-10.83,41.6
318674.937000,-0.932,-0.513,0.123,-54.48,-19.44,38.7
318674.937000,-0.912,-0.567,0.047,-45.93,-30.46,34.49
318674.953000,-0.891,-0.637,-0.067,-45.5,-40.19,24.72
318674.968000,-0.872,-0.648,-0.175,-46.54,-39.49,9.25
318674.968000,-0.923,-0.511,-0.173,-42.51,-26.98,-11.23
318674.984000,-0.946,-0.447,-0.148,-40.59,-22.31,-12.82
318675.000000,-0.921,-0.474,-0.156,-36.59,-20.33,-7.39
318675.000000,-0.903,-0.49,-0.142,-26.76,-13.28,-7.69
318675.015000,-0.897,-0.465,-0.112,-15.56,-7.17,-10.25
318675.015000,-0.895,-0.445,-0.092,-5.8,-2.9,-10.99
318675.031000,-0.901,-0.423,-0.072,3.2,0.15,-10.65
318675.046000,-0.904,-0.416,-0.05,10.32,2.5,-9.98
318675.046000,-0.907,-0.427,-0.027,16.69,4.52,-11.44
318675.062000,-0.921,-0.427,-0.014,21.39,5.95,-14.13
318675.062000,-0.932,-0.408,-0.022,22.03,6.07,-15.84
318675.078000,-0.959,-0.38,-0.021,19.41,7.9,-15.72
318675.093000,-0.968,-0.359,-0.016,14.16,8.3,-15.29
318675.093000,-0.974,-0.343,-0.024,4.7,7.14,-15.32
318675.109000,-0.986,-0.332,-0.03,-8.39,5.07,-15.38
318675.109000,-0.999,-0.332,-0.028,-20.2,4.64,-14.44
318675.125000,-1.012,-0.342,-0.013,-27.28,6.38,-13.79
318675.140000,-1.022,-0.351,0.005,-30.98,8.0,-12.94
318675.156000,-1.025,-0.358,0.017,-32.17,8.97,-11.51
318675.156000,-1.03,-0.365,0.034,-31.34,10.04,-8.97
318675.171000,-1.023,-0.382,0.048,-27.99,12.18,-4.46
318675.171000,-1.012,-0.399,0.065,-22.74,14.04,-0.58
318675.187000,-0.997,-0.404,0.083,-17.27,13.82,1.07
318675.203000,-0.981,-0.393,0.087,-12.09,12.45,1.22
318675.203000,-0.965,-0.387,0.086,-7.32,11.11,2.41
318675.218000,-0.952,-0.381,0.088,-4.12,8.67,3.33
318675.218000,-0.928,-0.365,0.086,-4.12,4.24,3.54
318675.234000,-0.905,-0.354,0.082,-5.25,-0.18,3.94
318675.250000,-0.88,-0.365,0.082,-4.49,-3.45,4.55
318675.265000,-0.848,-0.373,0.082,-3.42,-7.32,3.33
318675.265000,-0.829,-0.363,0.07,-4.73,-12.79,0.82
318675.281000,-0.815,-0.351,0.053,-6.71,-17.79,-0.89
318675.296000,-0.797,-0.346,0.039,-8.91,-20.72,-2.04
318675.296000,-0.79,-0.351,0.014,-13.12,-23.35,-3.27
318675.312000,-0.777,-0.371,-0.029,-20.23,-26.12,-3.27
318675.328000,-0.731,-0.41,-0.091,-31.16,-31.62,-2.75
318675.328000,-0.688,-0.447,-0.168,-45.78,-39.52,-3.23
318675.343000,-0.707,-0.46,-0.227,-61.34,-45.08,-5.98
318675.359000,-0.819,-0.441,-0.254,-73.09,-43.31,-10.96
318675.359000,-0.954,-0.414,-0.288,-80.84,-35.37,-13.95
318675.375000,-1.061,-0.398,-0.329,-88.63,-27.04,-13.06
318675.375000,-1.073,-0.392,-0.36,-100.34,-22.06,-7.78
318675.390000,-0.986,-0.41,-0.364,-114.78,-20.81,1.37
318675.406000,-0.822,-0.469,-0.335,-126.65,-20.57,12.42
318675.406000,-0.64,-0.533,-0.281,-131.9,-20.33,19.04
318675.421000,-0.476,-0.558,-0.24,-127.84,-19.71,15.99
318675.437000,-0.384,-0.52,-0.192,-115.82,-15.35,3.11
318675.437000,-0.342,-0.469,-0.174,-102.45,-14.19,-8.7
318675.453000,-0.37,-0.434,-0.195,-87.5,-10.01,-19.1
318675.453000,-0.463,-0.408,-0.253,-71.54,3.2,-27.71
318675.468000,-0.632,-0.394,-0.313,-60.43,25.79,-34.49
318675.484000,-0.861,-0.4,-0.348,-57.25,52.92,-38.3
318675.500000,-1.145,-0.429,-0.382,-60.55,80.29,-40.28
318675.500000,-1.418,-0.483,-0.361,-63.66,110.48,-40.13
318675.515000,-1.527,-0.566,-0.279,-60.03,135.26,-38.21
318675.531000,-1.59,-0.633,-0.121,-45.2,147.83,-38.27
318675.531000,-1.566,-0.642,0.072,-14.4,145.85,-40.38
318675.546000,-1.442,-0.636,0.214,33.39,139.71,-40.89
318675.546000,-1.334,-0.623,0.239,86.92,127.93,-37.69
318675.562000,-1.294,-0.549,0.18,139.71,114.29,-34.09
318675.562000,-1.286,-0.434,0.124,183.54,101.63,-31.01
318675.578000,-1.291,-0.349,0.154,215.67,83.86,-29.73
318675.593000,-1.306,-0.299,0.205,236.15,58.08,-27.92
318675.593000,-1.288,-0.304,0.215,235.79,25.57,-22.64
318675.609000,-1.212,-0.334,0.131,221.44,-3.88,-14.56
318675.609000,-1.105,-0.349,0.023,197.67,-19.96,-8.36
318675.625000,-1.024,-0.347,-0.028,168.07,-23.04,-7.32
318675.625000,-1.01,-0.337,-0.038,134.22,-20.66,-6.87
318675.656000,-0.891,-0.374,-0.044,98.61,-19.01,-1.92
318675.656000,-0.828,-0.414,-0.05,66.13,-13.09,-0.85
318675.671000,-0.829,-0.447,-0.032,33.94,-10.01,0.24
318675.687000,-0.787,-0.481,-0.009,4.09,-12.67,0.76
318675.687000,-0.739,-0.528,-0.007,-19.56,-20.2,-0.46
318675.703000,-0.686,-0.59,-0.026,-38.73,-29.97,-2.17
318675.718000,-0.636,-0.66,-0.066,-53.13,-40.68,-4.58
318675.718000,-0.614,-0.716,-0.11,-62.72,-48.65,-9.58
318675.734000,-0.635,-0.778,-0.149,-66.23,-50.42,-16.57
318675.734000,-0.662,-0.859,-0.157,-60.12,-45.75,-23.83
318675.750000,-0.694,-0.938,-0.137,-41.17,-31.98,-33.94
318675.765000,-0.805,-0.996,-0.122,-10.8,-8.09,-48.43
318675.765000,-0.948,-1.048,-0.125,24.17,19.32,-61.65
318675.781000,-1.07,-1.086,-0.111,59.57,44.1,-71.87
318675.796000,-1.177,-1.095,-0.062,97.87,68.36,-80.36
318675.796000,-1.239,-1.135,-0.02,140.78,87.77,-87.13
318675.812000,-1.228,-1.169,0.039,184.39,97.26,-95.16
318675.828000,-1.166,-1.142,0.103,229.19,99.12,-108.74
318675.828000,-1.098,-1.126,0.121,270.49,89.08,-120.52
318675.843000,-1.009,-1.142,0.096,303.66,72.76,-128.54
318675.859000,-0.899,-1.152,0.067,328.29,56.43,-136.17
318675.859000,-0.782,-1.141,0.038,343.91,39.92,-144.14
318675.875000,-0.686,-1.083,-0.0,347.48,20.54,-153.97
318675.875000,-0.609,-0.917,0.0,333.84,-2.59,-166.6
318675.890000,-0.588,-0.699,-0.058,297.49,-35.0,-176.98
318675.906000,-0.538,-0.748,-0.221,270.85,-52.43,-179.94
318675.906000,-0.479,-0.838,-0.24,238.81,-55.12,-198.07
318675.921000,-0.532,-0.716,-0.09,189.15,-58.17,-225.87
318675.921000,-0.62,-0.604,-0.06,156.19,-62.81,-239.97
318675.937000,-0.697,-0.555,-0.057,127.41,-62.87,-236.64
318675.953000,-0.735,-0.557,-0.017,97.05,-56.22,-222.6
318675.968000,-0.72,-0.608,0.041,80.14,-43.21,-205.82
318675.968000,-0.634,-0.605,0.117,66.77,-33.51,-188.54
318675.984000,-0.537,-0.546,0.177,48.62,-32.59,-168.13
318675.984000,-0.482,-0.521,0.232,32.01,-34.21,-144.51
318676.000000,-0.453,-0.557,0.272,19.71,-34.85,-120.61
318676.015000,-0.427,-0.621,0.324,11.78,-29.88,-101.38
318676.031000,-0.452,-0.692,0.412,9.95,-18.92,-86.98
318676.031000,-0.517,-0.8,0.532,13.92,-5.34,-70.65
318676.046000,-0.511,-0.888,0.642,20.87,6.62,-54.38
318676.046000,-0.455,-0.892,0.693,26.49,2.35,-47.0
318676.062000,-0.409,-0.853,0.683,30.46,-17.64,-47.79
318676.078000,-0.375,-0.804,0.638,33.17,-39.34,-51.09
318676.078000,-0.342,-0.738,0.578,32.72,-55.64,-53.07
318676.078000,-0.297,-0.67,0.514,27.47,-65.77,-53.68
318676.109000,-0.244,-0.597,0.45,15.26,-72.45,-54.08
318676.109000,-0.196,-0.533,0.393,-1.25,-76.97,-52.55
318676.109000,-0.164,-0.522,0.351,-15.78,-76.39,-46.66
318676.125000,-0.116,-0.569,0.354,-24.75,-70.35,-37.66
318676.140000,-0.053,-0.635,0.364,-23.83,-63.05,-31.46
318676.156000,-0.013,-0.657,0.39,-14.13,-58.57,-33.33
318676.156000,-0.01,-0.675,0.443,6.29,-57.8,-37.81
318676.171000,-0.034,-0.717,0.472,38.61,-56.89,-38.0
318676.187000,-0.037,-0.76,0.446,73.12,-54.32,-34.79
318676.187000,-0.073,-0.753,0.408,101.05,-45.75,-33.39
318676.203000,-0.139,-0.75,0.415,118.72,-30.52,-30.06
318676.218000,-0.203,-0.841,0.482,130.86,-8.18,-20.84
318676.218000,-0.234,-0.93,0.542,129.86,11.54,-13.34
318676.234000,-0.264,-0.926,0.623,112.58,15.75,-17.7
318676.234000,-0.272,-0.883,0.723,91.86,0.27,-30.34
318676.250000,-0.237,-0.836,0.746,76.33,-29.3,-43.18
318676.265000,-0.195,-0.776,0.688,66.13,-59.57,-51.48
318676.265000,-0.172,-0.752,0.648,63.3,-74.59,-52.58
318676.281000,-0.163,-0.787,0.678,71.66,-69.28,-46.97
318676.281000,-0.146,-0.773,0.685,87.56,-57.92,-40.86
318676.296000,-0.129,-0.677,0.668,102.48,-53.35,-36.99
318676.312000,-0.113,-0.606,0.647,117.28,-53.74,-30.55
318676.312000,-0.099,-0.551,0.601,132.02,-52.8,-21.3
318676.328000,-0.106,-0.477,0.575,140.69,-45.63,-10.86
318676.328000,-0.125,-0.444,0.604,146.82,-30.06,2.75
318676.343000,-0.151,-0.465,0.67,155.77,-8.42,19.47
318676.359000,-0.15,-0.469,0.704,162.79,12.21,35.46
318676.359000,-0.151,-0.402,0.694,158.15,21.97,46.78
318676.359000,-0.132,-0.321,0.669,142.0,21.76,55.85
318676.390000,-0.099,-0.271,0.619,121.95,18.74,64.06
318676.406000,-0.077,-0.227,0.57,101.47,18.28,71.35
318676.421000,-0.047,-0.186,0.518,80.6,18.74,78.16
318676.421000,-0.028,-0.167,0.461,54.66,16.75,82.09
318676.437000,-0.021,-0.202,0.459,-3.97,3.94,81.36
318676.437000,-0.037,-0.279,0.537,-22.16,-5.34,82.06
318676.453000,-0.007,-0.362,0.634,-26.06,-13.52,84.57
318676.453000,0.011,-0.436,0.679,-15.84,-17.4,85.3
318676.468000,0.004,-0.512,0.706,-3.42,-19.75,82.46
318676.484000,-0.0,-0.541,0.73,4.46,-24.84,78.37
318676.484000,0.011,-0.553,0.675,5.68,-29.51,75.35
318676.500000,0.025,-0.598,0.667,0.52,-33.85,72.08
318676.515000,0.029,-0.659,0.707,-5.62,-37.69,64.39
318676.515000,0.027,-0.725,0.773,-6.84,-40.8,53.19
318676.531000,0.013,-0.776,0.828,-3.69,-44.47,41.78
318676.546000,-0.013,-0.82,0.876,1.62,-47.82,31.68
318676.546000,-0.046,-0.861,0.924,8.94,-47.76,23.56
318676.562000,-0.075,-0.907,0.949,16.05,-43.12,17.7
318676.562000,-0.095,-0.957,0.95,17.49,-35.71,13.03
318676.578000,-0.117,-1.007,0.946,11.2,-27.59,8.36
318676.593000,-0.158,-1.057,0.961,-2.2,-18.65,3.11
318676.593000,-0.22,-1.107,1.009,-20.2,-6.5,-3.97
318676.609000,-0.297,-1.164,1.085,-37.66,7.17,-12.3
318676.625000,-0.36,-1.212,1.173,-48.59,19.32,-20.94
318676.625000,-0.394,-1.223,1.226,-51.45,25.27,-29.79
318676.640000,-0.4,-1.19,1.213,-47.33,23.47,-38.82
318676.656000,-0.415,-1.11,1.172,-37.2,17.43,-44.31
318676.656000,-0.358,-1.013,1.099,-25.7,6.93,-42.82
318676.671000,-0.266,-0.917,0.976,-13.92,-4.27,-39.34
318676.671000,-0.176,-0.804,0.847,-7.29,-13.09,-38.33
318676.687000,-0.104,-0.673,0.732,-9.31,-21.0,-39.22
318676.703000,-0.047,-0.546,0.625,-20.17,-28.38,-39.28
318676.703000,-0.001,-0.46,0.526,-36.59,-32.47,-37.87
318676.718000,0.046,-0.383,0.446,-58.57,-32.5,-35.52
318676.718000,0.084,-0.322,0.376,-82.55,-28.84,-31.04
318676.750000,0.102,-0.292,0.337,-106.11,-20.17,-25.12
318676.750000,0.128,-0.288,0.338,-128.15,-8.58,-19.96
318676.765000,0.152,-0.285,0.372,-146.37,1.01,-18.31
318676.765000,0.158,-0.278,0.402,-159.37,4.03,-18.89
318676.781000,0.152,-0.275,0.407,-167.58,3.75,-18.43
318676.796000,0.159,-0.262,0.401,-171.09,3.66,-15.81
318676.796000,0.158,-0.241,0.408,-168.19,4.15,-12.27
318676.812000,0.12,-0.254,0.481,-150.7,8.48,-6.13
318676.812000,0.045,-0.359,0.607,-111.67,20.94,5.55
318676.828000,-0.06,-0.541,0.779,-60.24,41.78,23.1
318676.843000,-0.136,-0.784,0.946,-4.0,64.85,43.31
318676.843000,-0.176,-0.981,1.083,49.96,80.51,48.52
318676.859000,-0.235,-1.067,1.224,86.0,73.49,31.01
318676.859000,-0.371,-1.064,1.303,98.27,40.68,1.25
318676.875000,-0.518,-1.043,1.321,95.71,-3.54,-23.9
318676.890000,-0.581,-1.037,1.275,87.19,-41.41,-35.71
318676.890000,-0.561,-1.001,1.181,74.56,-65.86,-39.58
318676.906000,-0.515,-0.925,1.088,57.83,-77.12,-42.73
318676.921000,-0.473,-0.846,1.001,38.36,-78.43,-43.95
318676.921000,-0.439,-0.793,0.931,20.14,-71.2,-40.28
318676.937000,-0.402,-0.757,0.872,4.58,-58.11,-31.77
318676.937000,-0.366,-0.726,0.815,-9.28,-43.67,-20.42
318676.968000,-0.334,-0.701,0.767,-22.58,-30.27,-8.21
318676.968000,-0.302,-0.696,0.724,-36.01,-20.17,5.16
318676.968000,-0.253,-0.708,0.686,-49.2,-13.06,19.1
318676.984000,-0.199,-0.72,0.65,-60.98,-8.33,31.13
318677.000000,-0.148,-0.722,0.613,-71.5,-6.13,39.86
318677.000000,-0.093,-0.707,0.573,-81.09,-6.71,44.92
318677.015000,-0.045,-0.685,0.553,-88.11,-9.31,47.79
318677.031000,-0.012,-0.663,0.545,-88.38,-13.0,50.05
318677.031000,0.009,-0.637,0.538,-81.06,-17.27,52.34
318677.046000,0.021,-0.609,0.525,-68.3,-22.58,54.96
318677.062000,0.032,-0.579,0.5,-52.8,-29.27,58.69
318677.062000,0.047,-0.552,0.453,-36.81,-37.45,63.57
318677.078000,0.07,-0.521,0.383,-24.51,-47.49,68.79
318677.078000,0.081,-0.485,0.3,-18.86,-56.49,73.46
318677.093000,0.073,-0.455,0.229,-20.02,-61.19,77.88
318677.109000,0.042,-0.454,0.185,-28.05,-61.1,82.64
318677.109000,0.015,-0.489,0.158,-43.03,-55.91,88.53
318677.125000,-0.008,-0.532,0.166,-60.49,-43.34,90.18
318677.140000,-0.054,-0.61,0.236,-79.13,-31.28,90.67
318677.140000,-0.089,-0.727,0.329,-94.49,-23.1,90.15
318677.156000,-0.162,-0.831,0.421,-102.33,-18.1,86.28
318677.156000,-0.254,-0.94,0.513,-101.66,-15.5,86.31
318677.171000,-0.322,-1.046,0.601,-92.29,-15.59,89.42
318677.187000,-0.367,-1.119,0.653,-75.38,-20.23,90.91
318677.187000,-0.391,-1.164,0.675,-56.15,-29.51,90.09
318677.203000,-0.367,-1.203,0.676,-36.9,-44.65,90.18
318677.234000,-0.323,-1.249,0.656,-15.32,-59.51,88.02
318677.234000,-0.285,-1.285,0.628,8.24,-70.47,80.42
318677.250000,-0.259,-1.288,0.592,31.37,-77.39,68.64
318677.250000,-0.236,-1.258,0.546,48.89,-82.22,57.07
318677.265000,-0.205,-1.217,0.499,57.71,-85.45,48.74
318677.265000,-0.162,-1.178,0.465,59.45,-86.25,43.46
318677.281000,-0.11,-1.147,0.447,55.36,-84.29,40.01
318677.296000,-0.057,-1.116,0.442,45.56,-80.39,36.62
318677.312000,-0.024,-1.119,0.45,31.53,-74.43,33.6
318677.312000,0.023,-1.18,0.482,16.36,-67.23,32.78
318677.328000,0.076,-1.25,0.542,4.24,-60.95,31.62
318677.328000,0.119,-1.287,0.6,-4.88,-56.7,28.57
318677.343000,0.165,-1.305,0.627,-11.9,-53.5,22.77
318677.359000,0.207,-1.299,0.655,-18.62,-50.84,12.6
318677.359000,0.22,-1.278,0.663,-26.37,-50.2,-0.43
318677.375000,0.221,-1.251,0.641,-36.07,-52.19,-12.7
318677.375000,0.223,-1.228,0.606,-48.83,-56.06,-23.26
318677.390000,0.234,-1.225,0.55,-65.25,-61.31,-32.29
318677.390000,0.275,-1.207,0.526,-84.05,-65.28,-41.84
318677.406000,0.324,-1.14,0.545,-101.29,-67.2,-53.68
318677.421000,0.357,-1.038,0.553,-114.72,-70.04,-65.98
318677.421000,0.362,-0.921,0.553,-122.9,-73.27,-76.85
318677.437000,0.337,-0.818,0.54,-125.0,-74.8,-83.01
318677.453000,0.266,-0.751,0.532,-123.02,-67.9,-83.35
318677.468000,0.211,-0.677,0.485,-125.49,-57.83,-76.14
318677.468000,0.187,-0.564,0.41,-135.59,-52.8,-67.9
318677.484000,0.167,-0.432,0.388,-150.33,-53.71,-61.22
318677.500000,0.133,-0.32,0.404,-162.14,-54.26,-51.15
318677.500000,0.084,-0.237,0.429,-167.42,-52.31,-36.38
318677.515000,0.028,-0.16,0.462,-167.24,-51.55,-19.23
318677.515000,-0.064,-0.081,0.522,-160.44,-52.8,-0.43
318677.531000,-0.222,-0.068,0.623,-141.91,-51.55,25.39
318677.546000,-0.373,-0.173,0.718,-112.8,-45.75,59.94
318677.546000,-0.466,-0.306,0.739,-86.28,-44.86,92.56
318677.562000,-0.536,-0.391,0.713,-70.77,-53.62,112.77
318677.578000,-0.59,-0.436,0.704,-68.36,-68.45,120.52
318677.578000,-0.656,-0.455,0.676,-74.19,-89.3,122.01
318677.578000,-0.744,-0.474,0.664,-79.87,-109.62,124.21
318677.609000,-0.861,-0.528,0.699,-77.24,-117.37,129.64
318677.609000,-0.978,-0.594,0.711,-74.31,-115.88,137.97
318677.625000,-1.058,-0.649,0.679,-80.57,-117.34,147.34
318677.640000,-1.09,-0.684,0.646,-96.16,-126.83,151.71
318677.640000,-1.081,-0.737,0.573,-118.75,-149.82,152.9
318677.656000,-1.035,-0.812,0.477,-141.45,-177.98,150.98
318677.656000,-0.973,-0.883,0.355,-156.8,-200.54,145.48
318677.671000,-0.918,-0.945,0.183,-163.58,-216.68,137.33
318677.687000,-0.874,-0.999,-0.009,-168.8,-230.41,128.09
318677.687000,-0.877,-1.071,-0.202,-174.84,-243.32,119.97
318677.703000,-0.785,-1.186,-0.339,-177.68,-250.47,114.02
318677.718000,-0.74,-1.249,-0.38,-169.93,-251.93,101.81
318677.718000,-0.739,-1.281,-0.375,-148.66,-247.05,87.19
318677.734000,-0.695,-1.325,-0.359,-115.54,-233.25,75.59
318677.750000,-0.635,-1.361,-0.351,-73.15,-213.08,64.24
318677.750000,-0.562,-1.372,-0.319,-27.8,-180.85,50.42
318677.750000,-0.539,-1.328,-0.282,8.42,-144.84,33.88
318677.781000,-0.589,-1.304,-0.23,29.76,-116.37,20.05
318677.781000,-0.594,-1.291,-0.144,39.37,-92.81,6.59
318677.781000,-0.589,-1.249,-0.025,44.86,-77.91,-8.48
318677.796000,-0.694,-1.27,0.024,49.44,-66.87,-17.06
318677.812000,-0.707,-1.274,0.03,46.66,-69.7,-21.94
318677.828000,-0.724,-1.241,0.01,36.07,-88.14,-27.99
318677.828000,-0.706,-1.215,0.008,16.36,-111.58,-30.79
318677.828000,-0.65,-1.22,0.009,-2.41,-131.57,-31.16
318677.859000,-0.586,-1.262,0.018,-10.16,-141.42,-31.86
318677.859000,-0.538,-1.336,0.028,-4.36,-141.03,-33.57
318677.859000,-0.485,-1.394,-0.015,3.63,-138.98,-36.99
318677.875000,-0.428,-1.427,-0.049,12.39,-137.0,-43.46
318677.890000,-0.368,-1.449,-0.114,23.04,-136.27,-52.61
318677.906000,-0.315,-1.469,-0.214,28.96,-136.91,-61.8
318677.906000,-0.265,-1.481,-0.323,28.99,-137.33,-69.95
318677.906000,-0.203,-1.484,-0.418,24.93,-133.24,-77.91
318677.921000,-0.137,-1.474,-0.507,17.06,-127.11,-88.56
318677.937000,-0.084,-1.44,-0.581,4.21,-119.08,-101.93
318677.937000,-0.053,-1.388,-0.627,-13.03,-105.29,-116.28
318677.953000,-0.031,-1.351,-0.618,-29.97,-83.44,-129.8
318677.953000,0.018,-1.32,-0.58,-39.86,-57.99,-142.37
318677.984000,0.033,-1.27,-0.549,-43.03,-33.69,-154.52
318678.000000,0.016,-1.21,-0.513,-41.93,-10.41,-165.59
318678.000000,-0.019,-1.128,-0.462,-36.56,11.23,-175.51
318678.015000,-0.038,-1.052,-0.417,-25.42,48.71,-184.51
318678.015000,-0.031,-0.994,-0.365,-20.33,66.04,-187.72
318678.031000,-0.02,-0.937,-0.29,-13.89,80.66,-190.59
318678.031000,-0.009,-0.884,-0.21,-6.93,91.37,-193.21
318678.046000,0.002,-0.826,-0.149,0.79,99.95,-197.27
318678.062000,0.0,-0.752,-0.095,5.22,101.96,-198.03
318678.062000,-0.017,-0.612,-0.026,4.33,101.41,-194.89
318678.078000,-0.023,-0.545,-0.035,-2.41,100.16,-190.34
318678.093000,-0.034,-0.459,-0.053,-15.9,98.18,-185.49
318678.093000,-0.04,-0.365,-0.049,-33.85,96.41,-179.11
318678.109000,-0.036,-0.273,-0.026,-50.6,95.25,-169.19
318678.125000,-0.021,-0.206,0.011,-63.42,94.61,-155.28
318678.140000,-0.01,-0.168,0.072,-69.37,95.0,-138.31
318678.140000,-0.019,-0.153,0.181,-61.4,97.72,-118.29
318678.156000,-0.024,-0.17,0.308,-33.57,102.11,-93.63
318678.156000,-0.006,-0.179,0.392,7.42,103.46,-67.75
318678.171000,0.005,-0.148,0.403,46.57,98.15,-45.35
318678.187000,0.016,-0.093,0.35,75.96,88.14,-25.79
318678.187000,0.017,-0.027,0.262,89.97,77.43,-7.93
318678.203000,-0.0,0.023,0.175,85.27,68.03,11.08
318678.218000,-0.026,0.037,0.12,67.6,62.14,34.42
318678.218000,-0.059,0.0,0.104,44.43,62.01,63.14
318678.218000,-0.091,-0.106,0.149,23.41,69.19,95.61
318678.250000,-0.104,-0.254,0.216,11.63,81.82,126.32
318678.250000,-0.121,-0.382,0.267,3.78,91.04,148.32
318678.265000,-0.136,-0.481,0.288,-3.81,95.13,161.75
318678.265000,-0.156,-0.565,0.241,-12.94,94.3,169.93
318678.281000,-0.177,-0.641,0.135,-33.14,89.39,174.96
318678.296000,-0.211,-0.721,0.081,-65.43,86.18,177.56
318678.296000,-0.278,-0.87,0.162,-89.33,91.98,180.18
318678.312000,-0.347,-1.1,0.333,-86.7,107.03,184.24
318678.328000,-0.357,-1.304,0.513,-60.76,120.0,185.16
318678.328000,-0.33,-1.38,0.63,-21.3,120.06,176.67
318678.343000,-0.319,-1.357,0.662,22.52,107.0,160.37
318678.359000,-0.311,-1.314,0.59,61.25,85.73,142.8
318678.359000,-0.292,-1.264,0.444,85.7,65.28,126.38
318678.375000,-0.284,-1.218,0.315,91.19,54.69,111.24
318678.375000,-0.284,-1.225,0.279,81.15,58.32,100.96
318678.390000,-0.308,-1.256,0.319,61.59,72.12,93.36
318678.406000,-0.349,-1.292,0.427,40.71,86.43,86.18
318678.406000,-0.363,-1.328,0.54,27.77,94.7,79.74
318678.421000,-0.364,-1.347,0.596,23.16,93.23,73.52
318678.437000,-0.357,-1.34,0.604,24.41,83.25,67.05
318678.437000,-0.336,-1.333,0.549,27.1,68.12,60.15
318678.453000,-0.307,-1.312,0.465,24.02,54.84,52.8
318678.453000,-0.283,-1.314,0.372,11.26,48.04,46.57
318678.468000,-0.272,-1.342,0.324,-8.88,48.22,39.49
318678.484000,-0.273,-1.378,0.346,-26.89,50.66,31.31
318678.484000,-0.26,-1.405,0.388,-33.33,51.09,23.29
318678.500000,-0.24,-1.408,0.387,-28.5,48.25,16.21
318678.515000,-0.222,-1.404,0.338,-18.25,44.25,10.93
318678.515000,-0.208,-1.402,0.259,-6.96,41.84,6.1
318678.531000,-0.208,-1.43,0.144,-0.12,41.63,0.79
318678.546000,-0.195,-1.491,-0.013,-5.55,44.25,-5.46
318678.546000,-0.164,-1.552,-0.176,-28.78,51.39,-16.91
318678.562000,-0.136,-1.604,-0.261,-61.8,65.68,-38.0
318678.578000,-0.142,-1.646,-0.212,-89.14,86.18,-67.17
318678.578000,-0.159,-1.681,-0.08,-96.07,105.11,-95.1
318678.593000,-0.164,-1.648,0.038,-71.44,123.2,-122.38
318678.609000,-0.202,-1.537,0.073,-29.48,127.66,-141.58
318678.609000,-0.235,-1.438,0.019,17.12,126.01,-150.94
318678.625000,-0.248,-1.354,-0.03,59.76,131.38,-157.14
318678.640000,-0.257,-1.246,-0.044,91.46,139.38,-163.27
318678.640000,-0.272,-1.143,-0.055,111.61,144.32,-168.28
318678.656000,-0.267,-1.061,-0.057,121.59,148.81,-171.64
318678.656000,-0.254,-0.986,-0.031,123.14,154.7,-174.08
318678.671000,-0.245,-0.909,0.018,119.6,160.41,-174.84
318678.687000,-0.246,-0.848,0.083,116.4,164.07,-174.14
318678.687000,-0.251,-0.815,0.161,115.91,168.1,-171.76
318678.703000,-0.247,-0.791,0.24,116.06,170.93,-168.13
318678.718000,-0.236,-0.752,0.308,116.82,168.89,-164.74
318678.718000,-0.22,-0.697,0.363,118.47,161.57,-160.22
318678.734000,-0.191,-0.65,0.423,121.71,152.68,-153.94
318678.734000,-0.158,-0.612,0.504,125.16,144.41,-145.39
318678.750000,-0.127,-0.56,0.574,126.38,134.34,-134.5
318678.765000,-0.111,-0.506,0.609,124.24,120.12,-121.92
318678.765000,-0.087,-0.471,0.6,118.78,101.63,-107.15
318678.781000,-0.055,-0.449,0.541,106.42,82.58,-91.04
318678.796000,-0.022,-0.434,0.506,87.01,68.3,-73.95
318678.796000,0.01,-0.435,0.483,63.94,59.24,-57.07
318678.812000,0.035,-0.448,0.481,38.18,53.9,-42.05
318678.828000,0.046,-0.472,0.492,13.09,51.15,-29.3
318678.828000,0.047,-0.511,0.51,-9.43,49.99,-17.82
318678.843000,0.048,-0.561,0.538,-27.13,49.29,-7.48
318678.859000,0.058,-0.611,0.572,-37.75,48.43,0.95
318678.859000,0.066,-0.646,0.596,-41.96,45.63,7.45
318678.875000,0.077,-0.666,0.6,-40.93,41.23,12.73
318678.890000,0.088,-0.676,0.592,-36.62,35.92,17.43
318678.890000,0.1,-0.684,0.573,-31.77,30.24,21.91
318678.890000,0.113,-0.698,0.542,-27.65,25.76,26.03
318678.906000,0.119,-0.712,0.511,-25.3,23.9,29.51
318678.921000,0.114,-0.736,0.487,-26.64,25.33,32.78
318678.937000,0.106,-0.772,0.483,-32.44,29.05,36.07
318678.937000,0.096,-0.82,0.494,-41.11,32.96,38.3
318678.953000,0.089,-0.875,0.518,-48.46,36.19,38.42
318678.968000,0.082,-0.923,0.549,-53.25,37.84,36.87
318678.968000,0.078,-0.958,0.567,-54.48,36.53,34.18
318678.984000,0.076,-0.985,0.583,-51.64,33.05,30.34
318678.984000,0.078,-1.004,0.59,-44.86,28.57,26.37
318679.000000,0.086,-1.012,0.583,-35.25,23.32,22.25
318679.015000,0.09,-1.016,0.569,-24.45,18.83,18.37
318679.031000,0.089,-1.022,0.555,-14.65,16.91,15.08
318679.031000,0.084,-1.029,0.549,-7.57,17.18,12.48
318679.046000,0.081,-1.023,0.546,-3.42,16.88,9.34
318679.046000,0.084,-1.015,0.545,-1.46,15.29,5.71
318679.062000,0.093,-1.014,0.545,-0.55,13.52,2.78
318679.078000,0.098,-1.015,0.552,-0.61,11.63,-0.03
318679.078000,0.104,-1.012,0.553,-1.92,9.52,-2.5
318679.093000,0.112,-1.011,0.551,-4.94,7.81,-5.13
318679.109000,0.129,-1.011,0.553,-10.35,5.62,-8.61
318679.109000,0.151,-1.007,0.557,-18.22,3.39,-12.88
318679.125000,0.178,-1.002,0.57,-26.09,1.71,-17.4
318679.125000,0.204,-0.998,0.583,-33.11,-0.37,-21.0
318679.140000,0.238,-1.012,0.583,-40.1,-2.9,-22.58
318679.156000,0.28,-1.035,0.578,-48.22,-5.07,-24.78
318679.156000,0.278,-1.022,0.586,-59.54,-8.15,-28.87
318679.171000,0.333,-1.046,0.574,-72.88,-13.52,-26.76
318679.187000,0.407,-1.1,0.513,-90.37,-20.72,-25.06
318679.203000,0.493,-1.147,0.418,-116.95,-25.61,-28.2
318679.203000,0.576,-1.225,0.361,-148.53,-23.47,-36.04
318679.218000,0.648,-1.316,0.329,-180.15,-16.91,-49.07
318679.218000,0.672,-1.4,0.315,-209.97,-9.43,-65.03
318679.234000,0.669,-1.484,0.385,-223.27,2.81,-81.51
318679.234000,0.663,-1.533,0.489,-216.83,11.17,-96.1
318679.250000,0.644,-1.523,0.532,-198.58,7.75,-109.29
318679.265000,0.585,-1.47,0.529,-170.96,-2.59,-119.75
318679.281000,0.576,-1.4,0.481,-140.11,-20.57,-123.08
318679.281000,0.607,-1.29,0.328,-120.12,-38.85,-128.39
318679.296000,0.48,-1.131,0.221,-111.88,-45.05,-135.29
318679.312000,0.548,-1.072,0.17,-114.75,-52.13,-125.43
318679.312000,0.555,-1.035,0.082,-125.58,-55.82,-125.31
318679.328000,0.521,-0.98,0.013,-147.25,-55.51,-128.64
318679.328000,0.476,-0.965,-0.063,-168.31,-48.1,-130.47
318679.328000,0.43,-1.014,-0.12,-175.66,-32.65,-125.19
318679.343000,0.404,-1.051,-0.124,-172.64,-20.42,-114.51
318679.359000,0.414,-1.043,-0.137,-163.46,-19.47,-105.78
318679.359000,0.397,-0.995,-0.172,-151.37,-24.96,-101.84
318679.375000,0.421,-0.94,-0.205,-138.95,-29.91,-97.99
318679.390000,0.415,-0.862,-0.255,-127.41,-31.98,-95.52
318679.406000,0.382,-0.753,-0.29,-120.52,-31.62,-89.69
318679.406000,0.369,-0.647,-0.343,-116.18,-29.6,-77.18
318679.421000,0.338,-0.526,-0.422,-117.77,-27.38,-62.04
318679.421000,0.314,-0.388,-0.527,-130.89,-23.68,-44.16
318679.437000,0.312,-0.232,-0.607,-158.39,-17.67,-25.45
318679.437000,0.313,-0.105,-0.616,-192.3,-11.2,-5.49
318679.468000,0.28,-0.073,-0.53,-222.75,-7.9,19.59
318679.468000,0.312,-0.137,-0.467,-248.42,-12.24,48.13
318679.468000,0.249,-0.156,-0.427,-267.46,-18.65,65.03
318679.500000,0.408,-0.246,-0.517,-275.7,-25.82,71.54
318679.500000,-0.27,-0.152,-0.424,-274.42,6.2,50.69
318679.515000,0.071,-0.514,-0.268,-301.37,-39.28,139.5
318679.515000,0.094,-0.715,-0.553,-275.19,-35.77,115.6
318679.531000,0.06,-0.761,-0.804,-216.19,3.78,73.61
318679.546000,-0.312,-0.546,-0.69,-174.5,57.99,28.41
318679.546000,-0.191,-0.579,-0.641,-180.46,3.63,74.01
318679.562000,-0.134,-0.595,-0.838,-191.63,-30.61,80.05
318679.578000,-0.128,-0.641,-0.899,-171.27,-21.36,70.25
318679.578000,-0.068,-0.653,-0.834,-169.8,-22.55,63.02
318679.593000,-0.048,-0.665,-0.873,-152.32,-25.97,49.13
318679.609000,-0.035,-0.708,-0.954,-131.96,-10.19,45.47
318679.609000,-0.038,-0.729,-0.974,-111.88,8.12,39.25
318679.625000,-0.042,-0.718,-0.968,-95.19,25.3,29.45
318679.625000,0.005,-0.673,-0.934,-84.51,37.05,21.24
318679.640000,0.055,-0.655,-0.917,-79.2,47.21,11.23
318679.640000,0.144,-0.661,-0.957,-77.49,58.96,-3.02
318679.656000,0.203,-0.598,-0.983,-82.34,71.23,-19.29
318679.671000,0.159,-0.523,-0.949,-84.48,82.25,-34.79
318679.687000,0.192,-0.472,-0.907,-77.88,79.35,-48.37
318679.687000,0.234,-0.425,-0.896,-73.43,78.49,-55.57
318679.703000,0.218,-0.375,-0.838,-67.51,83.41,-59.54
318679.703000,0.315,-0.345,-0.767,-68.91,81.39,-58.29
318679.718000,0.363,-0.323,-0.768,-70.99,73.89,-55.7
318679.718000,0.372,-0.275,-0.795,-68.24,69.98,-53.47
318679.734000,0.407,-0.211,-0.795,-64.46,72.82,-50.63
318679.750000,0.451,-0.163,-0.769,-65.49,75.11,-44.16
318679.765000,0.435,-0.151,-0.744,-65.22,77.52,-35.8
318679.765000,0.476,-0.15,-0.725,-63.39,73.79,-32.47
318679.765000,0.534,-0.137,-0.753,-62.56,72.27,-31.74
318679.781000,0.484,-0.108,-0.752,-58.57,78.07,-31.65
318679.796000,0.51,-0.089,-0.76,-57.8,83.83,-29.88
318679.796000,0.451,-0.062,-0.752,-59.51,86.4,-28.6
318679.812000,0.444,-0.042,-0.736,-62.47,85.42,-26.61
318679.812000,0.394,-0.06,-0.704,-65.03,83.07,-22.86
318679.828000,0.363,-0.102,-0.644,-67.05,76.3,-19.47
318679.859000,0.388,-0.142,-0.623,-69.43,58.84,-15.53
318679.859000,0.413,-0.19,-0.62,-66.81,38.21,-11.05
318679.875000,0.528,-0.227,-0.647,-60.46,21.58,-9.34
318679.890000,0.475,-0.212,-0.77,-53.56,8.39,-12.51
318679.890000,0.562,-0.157,-0.841,-42.24,11.93,-17.79
318679.890000,0.59,-0.091,-0.898,-35.65,24.17,-20.26
318679.921000,0.504,-0.08,-0.894,-31.8,36.56,-17.46
318679.921000,0.527,-0.1,-0.861,-31.8,40.8,-13.03
318679.937000,0.536,-0.112,-0.842,-32.04,41.9,-9.95
318679.937000,0.529,-0.109,-0.799,-28.08,45.11,-8.97
318679.953000,0.492,-0.103,-0.745,-20.81,45.08,-7.48
318679.968000,0.506,-0.11,-0.722,-14.16,39.95,-4.49
318679.968000,0.531,-0.127,-0.719,-11.17,34.0,-1.74
318679.984000,0.577,-0.125,-0.746,-10.83,33.02,-2.62
318680.000000,0.587,-0.097,-0.76,-12.85,39.92,-7.63
318680.000000,0.571,-0.041,-0.721,-21.73,41.69,-15.08
318680.015000,0.574,-0.026,-0.681,-31.16,36.35,-20.42
318680.031000,0.571,-0.029,-0.643,-37.72,27.1,-24.17
318680.031000,0.549,-0.044,-0.617,-38.06,17.82,-23.53
318680.046000,0.555,-0.059,-0.603,-33.2,10.71,-18.98
318680.046000,0.552,-0.062,-0.589,-26.25,4.55,-11.96
318680.062000,0.56,-0.073,-0.615,-17.98,-2.11,-4.27
318680.062000,0.582,-0.071,-0.653,-12.33,-6.68,0.43
318680.078000,0.609,-0.049,-0.67,-10.8,-7.97,2.08
318680.093000,0.627,-0.05,-0.689,-10.56,-8.64,1.92
318680.093000,0.629,-0.058,-0.715,-11.2,-9.13,-0.31
318680.109000,0.628,-0.06,-0.743,-11.57,-8.91,-2.66
318680.125000,0.613,-0.057,-0.753,-11.11,-7.87,-3.27
318680.125000,0.605,-0.072,-0.746,-8.67,-6.04,-0.76
318680.140000,0.616,-0.087,-0.744,-4.82,-4.49,2.35
318680.140000,0.615,-0.072,-0.761,-3.33,-3.57,3.3
318680.156000,0.623,-0.051,-0.768,-4.36,-1.74,3.81
318680.171000,0.652,-0.047,-0.773,-7.17,0.55,3.2
318680.187000,0.654,-0.056,-0.799,-10.01,4.3,1.01
318680.203000,0.63,-0.061,-0.791,-11.35,7.39,-2.26
318680.203000,0.646,-0.063,-0.789,-11.41,7.42,-4.15
318680.218000,0.63,-0.066,-0.769,-7.93,7.97,-4.36
318680.218000,0.631,-0.067,-0.762,-3.57,7.54,-2.44
318680.234000,0.64,-0.073,-0.764,1.07,7.26,-0.03
318680.234000,0.656,-0.066,-0.766,3.66,8.03,0.4
318680.250000,0.651,-0.043,-0.762,3.69,7.35,-1.8
318680.265000,0.65,-0.029,-0.773,1.53,5.31,-4.39
318680.265000,0.655,-0.044,-0.767,-1.13,5.65,-6.13
318680.281000,0.668,-0.06,-0.736,-2.04,6.04,-9.0
318680.296000,0.667,-0.083,-0.725,-1.71,4.09,-12.02
318680.296000,0.668,-0.095,-0.716,0.92,2.66,-15.75
318680.312000,0.677,-0.081,-0.717,3.6,1.22,-20.08
318680.328000,0.674,-0.037,-0.767,2.96,-0.12,-23.96
318680.328000,0.669,0.026,-0.805,-1.68,2.5,-25.18
318680.343000,0.671,0.06,-0.792,-7.57,7.42,-22.34
318680.343000,0.676,0.037,-0.761,-11.17,10.04,-16.88
318680.359000,0.683,-0.004,-0.745,-11.9,10.5,-12.3
318680.375000,0.686,-0.021,-0.729,-10.56,10.47,-9.8
318680.375000,0.692,-0.023,-0.713,-7.08,10.07,-7.81
318680.390000,0.696,-0.023,-0.701,-3.05,8.24,-5.55
318680.406000,0.695,-0.024,-0.711,0.21,5.16,-4.03
318680.406000,0.708,-0.021,-0.733,1.46,2.32,-4.03
318680.421000,0.712,-0.003,-0.75,0.09,-0.03,-5.19
318680.437000,0.707,0.013,-0.751,-1.46,-0.64,-5.77
318680.437000,0.699,0.003,-0.745,-2.17,-0.31,-4.88
318680.437000,0.684,-0.02,-0.736,-1.92,-0.24,-3.97
318680.453000,0.674,-0.045,-0.721,-0.27,0.31,-3.45
318680.468000,0.671,-0.059,-0.712,2.66,0.49,-4.12
318680.468000,0.669,-0.049,-0.714,6.2,0.12,-6.29
318680.484000,0.661,-0.025,-0.728,7.75,-0.67,-8.3
318680.500000,0.654,-0.007,-0.733,7.02,-0.4,-9.25
318680.500000,0.656,0.005,-0.723,5.4,0.49,-9.4
318680.515000,0.653,0.018,-0.714,3.57,0.76,-8.39
318680.515000,0.65,0.027,-0.712,2.66,1.53,-6.16
318680.531000,0.652,0.027,-0.714,2.11,2.93,-2.78
318680.546000,0.662,0.021,-0.716,1.59,4.55,0.12
318680.546000,0.662,0.005,-0.72,0.61,5.04,1.92
318680.562000,0.666,-0.016,-0.72,-0.64,4.61,2.08
318680.578000,0.675,-0.035,-0.722,-2.29,3.39,0.7
318680.578000,0.671,-0.042,-0.735,-3.27,2.41,-1.83
318680.593000,0.665,-0.035,-0.744,-3.27,3.02,-4.58
318680.593000,0.661,-0.019,-0.741,-2.87,3.91,-5.28
318680.625000,0.665,-0.018,-0.732,-2.26,4.79,-3.97
318680.625000,0.667,-0.022,-0.723,-1.43,5.62,-2.62
318680.640000,0.675,-0.015,-0.715,-1.31,6.23,-2.17
318680.656000,0.68,-0.007,-0.711,-2.17,6.29,-2.23
318680.656000,0.681,-0.001,-0.699,-3.85,6.04,-2.47
318680.671000,0.678,-0.002,-0.695,-5.68,4.67,-2.72
318680.687000,0.679,-0.005,-0.689,-6.13,3.08,-2.72
318680.687000,0.675,0.002,-0.685,-5.77,1.53,-2.32
318680.703000,0.666,0.009,-0.683,-4.88,0.64,-0.7
318680.703000,0.668,0.008,-0.669,-3.45,0.06,1.77
318680.718000,0.673,-0.004,-0.649,-1.43,-1.5,4.27
318680.734000,0.679,-0.016,-0.652,0.15,-4.24,5.04
318680.750000,0.681,-0.009,-0.658,0.46,-7.05,3.88
318680.750000,0.681,0.006,-0.667,-0.67,-9.34,2.32
318680.750000,0.677,0.012,-0.677,-2.11,-10.99,1.43
318680.765000,0.671,0.013,-0.679,-3.48,-11.87,1.4
318680.781000,0.663,0.006,-0.676,-3.33,-12.36,2.38
318680.796000,0.654,-0.006,-0.679,-1.37,-13.67,4.33
318680.812000,0.653,-0.022,-0.701,1.65,-16.08,6.87
318680.812000,0.652,-0.033,-0.729,5.22,-17.49,10.01
318680.828000,0.655,-0.053,-0.756,10.47,-17.27,13.43
318680.828000,0.668,-0.07,-0.774,15.59,-16.24,15.63
318680.843000,0.676,-0.075,-0.794,19.71,-14.28,16.63
318680.843000,0.679,-0.078,-0.808,21.42,-10.35,16.36
318680.859000,0.679,-0.084,-0.813,19.93,-5.65,14.31
318680.875000,0.676,-0.086,-0.804,15.84,-1.25,9.67
318680.875000,0.675,-0.077,-0.784,10.16,1.89,4.3
318680.890000,0.671,-0.074,-0.77,4.3,4.12,-0.18
318680.906000,0.668,-0.068,-0.752,-0.21,5.98,-4.09
318680.906000,0.661,-0.055,-0.729,-3.05,6.5,-6.81
318680.921000,0.658,-0.044,-0.713,-3.85,5.74,-7.81
318680.921000,0.668,-0.031,-0.702,-3.17,4.55,-7.84
318680.937000,0.669,-0.012,-0.701,-2.01,3.72,-7.05
318680.937000,0.665,0.006,-0.701,-1.43,3.23,-5.92
318680.953000,0.664,0.014,-0.688,-1.92,2.47,-4.52
318680.968000,0.675,0.008,-0.666,-2.69,0.58,-3.3
318680.984000,0.681,-0.002,-0.65,-2.5,-2.44,-2.87
318680.984000,0.675,-0.005,-0.65,-0.27,-6.35,-3.36
318681.000000,0.657,-0.003,-0.668,3.51,-10.53,-3.91
318681.015000,0.648,0.002,-0.707,7.05,-13.25,-3.3
318681.031000,0.644,0.013,-0.742,8.88,-13.25,-0.73
318681.031000,0.645,0.023,-0.756,8.82,-10.44,3.17
318681.046000,0.643,0.004,-0.752,9.0,-7.29,7.57
318681.046000,0.64,-0.024,-0.747,8.58,-6.35,9.83
318681.046000,0.634,-0.037,-0.741,7.39,-6.87,9.83
318681.078000,0.625,-0.042,-0.742,6.65,-7.26,9.67
318681.078000,0.621,-0.049,-0.742,6.96,-7.29,9.98
318681.093000,0.619,-0.06,-0.742,8.09,-6.87,10.47
318681.093000,0.625,-0.07,-0.747,8.48,-6.38,10.56
318681.109000,0.63,-0.07,-0.767,7.93,-5.8,9.58
318681.125000,0.629,-0.058,-0.776,6.56,-3.75,8.0
318681.125000,0.631,-0.059,-0.77,5.28,-1.22,6.9
318681.140000,0.64,-0.065,-0.768,3.97,0.55,5.65
318681.156000,0.641,-0.074,-0.769,2.69,1.86,4.0
318681.156000,0.637,-0.075,-0.761,1.62,3.45,2.26
318681.171000,0.634,-0.073,-0.752,1.43,4.94,-1.19
318681.187000,0.625,-0.066,-0.743,1.71,4.7,-2.01
318681.187000,0.62,-0.058,-0.741,1.53,4.61,-1.8
318681.203000,0.612,-0.05,-0.743,0.89,5.13,-0.89
318681.203000,0.61,-0.044,-0.733,-0.03,4.97,0.18
318681.218000,0.621,-0.051,-0.724,-0.24,4.3,0.76
318681.234000,0.625,-0.049,-0.72,0.27,2.44,1.13
318681.234000,0.632,-0.054,-0.724,0.76,0.95,1.56
318681.250000,0.637,-0.061,-0.732,1.59,0.49,1.74
318681.265000,0.645,-0.063,-0.731,2.38,0.34,1.59
318681.265000,0.654,-0.062,-0.735,2.35,-0.27,0.82
318681.281000,0.656,-0.059,-0.742,0.85,-0.76,-0.89
318681.296000,0.654,-0.053,-0.744,-1.4,-0.61,-3.05
318681.296000,0.659,-0.052,-0.736,-3.51,0.03,-5.22
318681.312000,0.659,-0.049,-0.731,-5.13,0.06,-7.23
318681.328000,0.66,-0.038,-0.729,-6.23,-0.61,-8.36
318681.328000,0.655,-0.023,-0.733,-6.16,-1.62,-7.84
318681.328000,0.66,-0.015,-0.737,-4.73,-1.5,-5.4
318681.343000,0.661,-0.008,-0.744,-2.87,-1.19,-2.23
318681.359000,0.654,-0.012,-0.755,-1.25,-0.64,0.73
318681.375000,0.654,-0.021,-0.752,0.55,0.37,3.17
318681.375000,0.653,-0.033,-0.745,2.26,1.13,4.97
318681.390000,0.65,-0.043,-0.743,2.56,1.62,5.46
318681.390000,0.656,-0.048,-0.732,1.53,1.46,4.46
318681.406000,0.657,-0.046,-0.728,-0.4,0.37,2.59
318681.406000,0.652,-0.038,-0.73,-2.66,-0.98,0.37
318681.421000,0.647,-0.028,-0.734,-4.55,-2.2,-0.98
318681.437000,0.643,-0.025,-0.733,-4.73,-2.47,-0.61
318681.453000,0.645,-0.031,-0.725,-3.27,-2.35,1.25
318681.453000,0.644,-0.04,-0.727,-0.58,-2.41,3.91
318681.468000,0.641,-0.047,-0.734,2.53,-2.41,6.32
318681.484000,0.638,-0.046,-0.731,4.61,-2.35,7.72
318681.484000,0.641,-0.051,-0.728,5.25,-3.2,8.64
318681.484000,0.649,-0.06,-0.737,4.64,-4.61,8.58
318681.500000,0.654,-0.063,-0.747,3.2,-5.52,6.9
318681.515000,0.655,-0.051,-0.755,0.79,-5.74,4.64
318681.515000,0.642,-0.041,-0.766,-1.65,-5.28,3.2
318681.531000,0.634,-0.05,-0.764,-3.39,-3.94,3.11
318681.546000,0.636,-0.072,-0.764,-3.94,-3.14,3.66
318681.546000,0.639,-0.086,-0.763,-2.99,-2.41,3.72
318681.578000,0.639,-0.087,-0.767,-1.22,-1.62,3.6
318681.578000,0.643,-0.087,-0.772,0.37,-0.31,3.6
318681.593000,0.645,-0.082,-0.772,0.85,0.82,2.87
318681.609000,0.642,-0.073,-0.768,-0.18,1.43,1.25
318681.609000,0.646,-0.07,-0.762,-1.77,2.14,-0.34
318681.625000,0.648,-0.067,-0.762,-3.91,2.84,-2.04
318681.640000,0.642,-0.059,-0.756,-5.71,3.97,-3.63
318681.640000,0.64,-0.054,-0.738,-6.32,4.58,-4.12
318681.656000,0.639,-0.052,-0.723,-5.74,4.21,-3.81
318681.656000,0.638,-0.048,-0.719,-4.76,2.93,-3.33
318681.671000,0.638,-0.04,-0.714,-3.54,1.74,-2.81
318681.671000,0.642,-0.028,-0.711,-3.05,0.27,-1.86
318681.687000,0.644,-0.02,-0.718,-3.51,-1.19,-0.79
318681.703000,0.645,-0.007,-0.723,-5.25,-2.08,0.03
318681.718000,0.639,-0.0,-0.731,-6.93,-2.44,1.25
318681.718000,0.629,-0.007,-0.726,-7.6,-2.32,3.23
318681.734000,0.627,-0.019,-0.712,-7.23,-2.44,5.77
318681.734000,0.631,-0.031,-0.71,-5.71,-3.11,8.48
318681.734000,0.62,-0.036,-0.72,-3.48,-4.27,10.41
318681.750000,0.614,-0.045,-0.729,-1.56,-5.71,11.99
318681.765000,0.618,-0.061,-0.74,-0.61,-7.35,13.03
318681.781000,0.62,-0.075,-0.766,-0.79,-8.09,13.0
318681.796000,0.62,-0.079,-0.778,-1.31,-6.59,11.84
318681.796000,0.631,-0.084,-0.766,-1.8,-4.49,10.44
318681.796000,0.632,-0.093,-0.772,-1.98,-3.51,8.06
318681.812000,0.626,-0.087,-0.788,-2.29,-1.71,5.04
318681.812000,0.621,-0.076,-0.784,-3.02,1.01,2.9
318681.828000,0.616,-0.078,-0.769,-3.51,3.66,1.86
318681.859000,0.612,-0.082,-0.759,-3.69,5.37,0.95
318681.859000,0.612,-0.078,-0.748,-3.36,6.93,-0.52
318681.875000,0.614,-0.068,-0.741,-2.66,7.45,-2.04
318681.875000,0.616,-0.052,-0.733,-2.14,7.63,-3.02
318681.890000,0.616,-0.047,-0.725,-2.44,7.6,-3.02
318681.906000,0.611,-0.052,-0.732,-2.59,6.93,-2.69
318681.906000,0.611,-0.054,-0.734,-2.17,6.04,-2.59
318681.921000,0.616,-0.05,-0.724,-0.98,5.43,-2.41
318681.937000,0.621,-0.052,-0.718,1.22,5.04,-1.71
318681.937000,0.626,-0.054,-0.717,3.51,5.01,-1.31
318681.953000,0.638,-0.06,-0.71,4.79,4.61,-1.56
318681.953000,0.638,-0.061,-0.72,5.1,2.59,-2.72
318681.968000,0.632,-0.05,-0.731,4.85,1.16,-4.49
318681.984000,0.642,-0.047,-0.744,4.43,0.58,-5.4
318682.000000,0.645,-0.052,-0.757,3.75,0.31,-5.52
318682.000000,0.647,-0.056,-0.767,3.57,1.22,-6.01
318682.015000,0.647,-0.058,-0.775,3.42,2.53,-6.35
318682.015000,0.645,-0.056,-0.783,3.3,4.18,-6.38
318682.031000,0.65,-0.065,-0.774,3.69,5.98,-5.65
318682.031000,0.659,-0.084,-0.762,5.16,6.71,-5.07
318682.046000,0.657,-0.093,-0.751,6.78,6.26,-6.5
318682.062000,0.654,-0.086,-0.753,7.42,4.76,-9.22
318682.078000,0.647,-0.052,-0.755,4.97,3.08,-11.29
318682.078000,0.643,-0.034,-0.752,2.44,2.17,-11.14
318682.078000,0.636,-0.05,-0.759,2.14,1.95,-9.55
318682.093000,0.63,-0.062,-0.767,2.75,2.5,-7.66
318682.109000,0.638,-0.065,-0.756,3.66,3.97,-5.89
318682.125000,0.648,-0.064,-0.747,5.34,5.07,-4.49
318682.140000,0.654,-0.067,-0.741,8.3,6.41,-4.09
318682.140000,0.658,-0.066,-0.736,10.53,7.48,-5.1
318682.156000,0.663,-0.064,-0.721,10.07,6.96,-7.51
318682.156000,0.66,-0.058,-0.718,7.35,4.24,-10.93
318682.171000,0.662,-0.046,-0.717,4.09,1.59,-13.98
318682.187000,0.664,-0.039,-0.711,2.08,0.43,-16.17
318682.187000,0.666,-0.037,-0.708,2.01,0.64,-17.21
318682.203000,0.669,-0.027,-0.707,2.44,1.83,-17.91
318682.203000,0.662,-0.001,-0.71,1.8,2.23,-18.22
318682.218000,0.667,0.009,-0.7,1.5,2.26,-16.66
318682.218000,0.672,-0.002,-0.693,2.81,1.16,-14.1
318682.250000,0.668,-0.01,-0.692,4.82,-0.43,-12.3
318682.250000,0.673,-0.002,-0.695,6.62,-2.5,-10.74
318682.265000,0.67,0.004,-0.696,7.84,-4.76,-8.7
318682.265000,0.674,-0.002,-0.697,9.22,-6.65,-6.44
318682.281000,0.674,-0.005,-0.704,10.53,-8.51,-4.15
318682.296000,0.674,0.0,-0.709,11.26,-9.8,-2.59
318682.296000,0.666,0.002,-0.723,11.35,-11.23,-1.04
318682.296000,0.663,-0.005,-0.731,10.68,-12.09,0.7
318682.328000,0.667,-0.02,-0.729,10.25,-12.82,2.17
318682.328000,0.663,-0.033,-0.748,10.28,-13.7,3.14
318682.343000,0.662,-0.034,-0.766,9.58,-12.91,3.39
318682.359000,0.667,-0.031,-0.773,7.42,-10.68,3.36
318682.359000,0.673,-0.033,-0.767,4.58,-8.06,3.23
318682.375000,0.677,-0.041,-0.755,1.8,-6.47,2.29
318682.375000,0.67,-0.038,-0.756,-0.7,-6.07,0.49
318682.390000,0.661,-0.029,-0.753,-2.78,-5.74,-0.85
318682.406000,0.655,-0.024,-0.746,-4.91,-5.68,-0.61
318682.406000,0.648,-0.02,-0.745,-6.35,-5.83,0.4
318682.421000,0.643,-0.015,-0.734,-6.23,-5.74,1.83
318682.421000,0.642,-0.016,-0.724,-4.94,-6.16,4.06
318682.437000,0.643,-0.022,-0.723,-3.2,-6.74,6.74
318682.453000,0.642,-0.026,-0.719,-1.56,-6.78,8.42
318682.453000,0.646,-0.02,-0.715,-0.67,-7.23,8.55
318682.468000,0.644,-0.014,-0.725,-1.25,-8.18,7.78
318682.484000,0.632,-0.016,-0.737,-2.87,-8.48,7.05
318682.484000,0.627,-0.03,-0.733,-4.03,-8.27,6.26
318682.500000,0.622,-0.038,-0.735,-4.97,-9.31,5.1
318682.500000,0.606,-0.042,-0.758,-4.97,-10.44,4.3
318682.531000,0.596,-0.051,-0.781,-3.45,-10.1,4.39
318682.531000,0.59,-0.06,-0.804,-0.95,-8.33,4.94
318682.531000,0.576,-0.073,-0.843,1.74,-6.13,6.1
318682.546000,0.564,-0.09,-0.878,3.97,-2.35,7.32
318682.562000,0.561,-0.106,-0.87,6.23,2.75,8.15
318682.562000,0.548,-0.143,-0.897,10.22,6.38,8.42
318682.578000,0.544,-0.177,-0.933,15.08,10.22,7.11
318682.593000,0.546,-0.188,-0.967,19.59,15.23,4.0
318682.609000,0.54,-0.194,-1.008,24.2,22.13,0.43
318682.609000,0.539,-0.188,-1.063,27.92,30.24,-4.43
318682.625000,0.523,-0.165,-1.156,29.82,39.74,-10.44
318682.640000,0.488,-0.139,-1.216,31.65,53.29,-15.96
318682.640000,0.431,-0.11,-1.238,35.25,69.92,-20.11
318682.656000,0.387,-0.089,-1.18,38.09,86.06,-21.24
318682.656000,0.359,-0.099,-1.119,41.99,97.02,-20.17
318682.671000,0.343,-0.104,-1.091,48.86,103.98,-20.75
318682.687000,0.326,-0.117,-1.057,59.05,108.28,-22.49
318682.687000,0.315,-0.135,-1.002,70.8,111.36,-23.9
318682.703000,0.309,-0.119,-0.974,82.77,112.37,-25.03
318682.718000,0.293,-0.082,-1.019,93.23,111.36,-26.06
318682.718000,0.301,-0.039,-1.042,100.34,112.46,-26.15
318682.734000,0.322,-0.003,-1.009,103.31,115.21,-24.69
318682.734000,0.351,0.0,-0.99,97.26,111.73,-17.0
318682.750000,0.382,-0.023,-0.949,90.37,104.98,-12.79
318682.765000,0.443,-0.097,-0.867,88.93,98.76,-13.95
318682.781000,0.511,-0.191,-0.8,94.58,97.29,-21.49
318682.781000,0.551,-0.214,-0.774,100.31,99.73,-30.61
318682.796000,0.553,-0.172,-0.788,106.3,103.58,-37.35
318682.796000,0.657,-0.039,-0.8,105.69,103.98,-42.79
318682.812000,0.68,0.053,-0.779,95.46,102.24,-43.24
318682.812000,0.739,0.016,-0.667,83.35,103.15,-35.34
318682.828000,0.796,-0.047,-0.49,73.37,104.98,-30.15
318682.843000,0.812,-0.089,-0.332,67.26,107.21,-29.63
318682.843000,0.811,-0.095,-0.207,64.58,110.78,-32.69
318682.859000,0.781,-0.097,-0.155,63.14,111.24,-37.35
318682.875000,0.796,-0.07,-0.137,62.62,105.69,-41.69
318682.875000,0.841,0.038,-0.121,58.44,94.52,-46.02
318682.890000,0.845,0.109,-0.163,50.57,82.77,-44.89
318682.890000,0.913,0.131,-0.142,44.86,77.0,-39.92
318682.906000,0.925,0.141,-0.178,40.83,73.4,-34.85
318682.906000,0.905,0.101,-0.227,38.94,75.75,-27.1
318682.921000,0.926,0.025,-0.188,34.49,76.85,-17.61
318682.937000,0.979,-0.054,-0.074,26.58,70.16,-8.7
318682.953000,1.032,-0.102,0.014,22.28,60.46,-2.66
318682.953000,1.083,-0.152,0.018,23.71,53.59,0.21
318682.953000,1.135,-0.159,0.013,24.87,48.19,-2.29
318682.984000,1.152,-0.125,0.005,21.06,41.08,-6.96
318682.984000,1.152,-0.135,-0.028,15.69,37.72,-9.09
318683.000000,1.161,-0.143,0.017,9.7,39.7,-11.47
318683.000000,1.156,-0.133,0.047,4.06,41.11,-15.08
318683.015000,1.156,-0.134,0.071,-1.16,42.82,-18.86
318683.015000,1.162,-0.084,0.114,-7.39,43.55,-24.51
318683.031000,1.115,-0.042,0.073,-13.37,45.56,-27.53
318683.046000,1.082,-0.047,0.097,-19.68,51.76,-27.38
318683.046000,1.05,-0.042,0.155,-24.69,55.21,-27.65
318683.078000,1.011,-0.027,0.17,-25.3,54.81,-26.28
318683.078000,1.031,0.02,0.175,-24.54,52.4,-23.9
318683.093000,1.041,0.091,0.148,-25.61,47.33,-20.91
318683.109000,1.037,0.103,0.151,-28.84,43.34,-14.31
318683.109000,1.036,0.058,0.173,-30.64,41.35,-7.11
318683.125000,1.029,0.022,0.198,-28.99,41.32,-3.42
318683.140000,0.999,0.017,0.195,-26.12,40.99,-2.69
318683.140000,0.976,-0.003,0.179,-26.15,39.34,-1.43
318683.156000,0.967,-0.037,0.187,-29.48,36.84,-1.22
318683.156000,0.959,-0.062,0.193,-33.05,32.53,-2.87
318683.171000,0.95,-0.073,0.22,-35.16,27.04,-5.4
318683.187000,0.939,-0.077,0.239,-35.37,20.42,-6.9
318683.187000,0.93,-0.069,0.234,-34.7,14.4,-7.81
318683.203000,0.921,-0.064,0.226,-34.12,9.31,-7.23
318683.203000,0.93,-0.059,0.218,-33.17,4.09,-5.52
318683.218000,0.946,-0.052,0.194,-31.62,-1.53,-3.94
318683.234000,0.962,-0.039,0.173,-29.54,-6.41,-2.56
318683.234000,0.987,-0.037,0.144,-27.44,-10.41,-0.79
318683.250000,1.007,-0.054,0.11,-25.94,-12.27,0.4
318683.250000,1.016,-0.076,0.073,-26.25,-13.0,0.31
318683.265000,1.024,-0.115,0.03,-26.46,-13.92,0.0
318683.281000,1.031,-0.142,0.007,-25.73,-14.56,-1.16
318683.281000,1.023,-0.148,-0.013,-23.87,-15.78,-2.08
318683.296000,1.017,-0.168,-0.035,-19.84,-15.59,-1.16
318683.312000,1.016,-0.19,-0.037,-14.86,-13.89,0.64
318683.328000,1.014,-0.193,-0.041,-8.58,-11.23,1.34
318683.343000,1.016,-0.177,-0.058,-2.56,-7.9,0.43
318683.343000,1.014,-0.147,-0.076,-0.46,-4.27,-2.32
318683.343000,1.008,-0.131,-0.093,-2.44,-0.64,-5.34
318683.359000,1.004,-0.137,-0.082,-6.07,2.93,-7.9
318683.375000,0.992,-0.144,-0.057,-7.81,5.43,-10.13
318683.390000,0.973,-0.146,-0.043,-5.98,6.29,-11.2
318683.390000,0.963,-0.13,-0.027,-1.4,5.86,-10.32
318683.406000,0.953,-0.101,-0.028,3.97,4.67,-8.39
318683.406000,0.952,-0.081,-0.046,8.94,4.09,-5.37
318683.421000,0.956,-0.057,-0.046,11.96,4.73,-3.11
318683.437000,0.955,-0.039,-0.051,12.67,4.64,-1.59
318683.437000,0.959,-0.035,-0.057,11.47,4.39,-0.85
318683.453000,0.956,-0.035,-0.051,9.55,4.24,-0.64
318683.468000,0.956,-0.04,-0.05,7.93,3.81,-0.49
318683.468000,0.952,-0.053,-0.054,7.84,2.9,0.18
318683.484000,0.956,-0.068,-0.063,9.03,1.5,1.65
318683.484000,0.964,-0.07,-0.065,10.96,0.18,2.93
318683.500000,0.967,-0.07,-0.075,13.34,-1.04,4.12
318683.500000,0.97,-0.075,-0.085,15.23,-1.37,4.88
318683.515000,0.972,-0.075,-0.094,15.96,-1.07,4.61
318683.531000,0.974,-0.08,-0.11,15.35,-0.64,4.0
318683.546000,0.977,-0.082,-0.11,13.43,0.61,2.56
318683.546000,0.97,-0.076,-0.105,11.29,1.62,0.4
318683.546000,0.963,-0.073,-0.108,9.98,2.47,-0.79
318683.578000,0.957,-0.078,-0.101,9.31,3.05,-0.79
318683.578000,0.959,-0.076,-0.082,9.55,2.53,0.12
318683.593000,0.963,-0.07,-0.083,11.6,1.43,1.86
318683.609000,0.97,-0.067,-0.08,14.16,1.16,3.48
318683.609000,0.973,-0.057,-0.084,15.75,0.49,4.52
318683.625000,0.976,-0.06,-0.103,15.75,-0.4,5.58
318683.625000,0.978,-0.063,-0.102,14.1,-0.4,5.46
318683.640000,0.973,-0.063,-0.104,12.02,-0.12,4.61
318683.656000,0.974,-0.07,-0.106,10.35,0.7,3.78
318683.656000,0.971,-0.067,-0.095,8.51,1.65,3.05
318683.671000,0.969,-0.066,-0.09,7.14,1.95,2.53
318683.687000,0.97,-0.072,-0.09,6.59,1.95,2.62
318683.687000,0.971,-0.072,-0.074,6.65,1.71,2.81
318683.703000,0.965,-0.074,-0.078,7.29,1.01,3.11
318683.718000,0.965,-0.082,-0.081,7.93,0.73,4.06
318683.718000,0.963,-0.08,-0.065,7.93,-0.15,4.55
318683.734000,0.96,-0.079,-0.073,8.33,-1.71,4.94
318683.734000,0.963,-0.078,-0.082,8.24,-2.81,5.1
318683.750000,0.964,-0.075,-0.09,6.59,-3.51,4.79
318683.765000,0.969,-0.074,-0.099,4.27,-3.66,4.21
318683.765000,0.971,-0.081,-0.098,2.11,-2.93,3.3
318683.781000,0.967,-0.088,-0.093,0.61,-2.32,2.53
318683.796000,0.963,-0.093,-0.089,-0.18,-2.01,1.77
318683.796000,0.96,-0.108,-0.085,0.21,-2.14,2.26
318683.812000,0.966,-0.114,-0.078,1.4,-3.08,2.9
318683.828000,0.969,-0.11,-0.08,3.11,-4.52,3.27
318683.828000,0.973,-0.106,-0.089,4.52,-5.34,3.63
318683.843000,0.973,-0.104,-0.084,5.28,-5.43,3.66
318683.859000,0.972,-0.101,-0.077,5.77,-5.86,3.36
318683.859000,0.972,-0.097,-0.076,6.2,-6.62,2.87
318683.875000,0.971,-0.088,-0.077,6.2,-7.05,2.23
318683.890000,0.965,-0.078,-0.075,6.1,-7.17,1.8
318683.890000,0.955,-0.079,-0.07,6.16,-7.57,2.2
318683.890000,0.952,-0.087,-0.075,6.9,-8.36,3.42
318683.906000,0.951,-0.088,-0.078,8.39,-9.31,4.46
318683.921000,0.946,-0.082,-0.084,10.83,-10.83,5.46
318683.921000,0.945,-0.084,-0.096,13.4,-12.6,7.84
318683.937000,0.954,-0.084,-0.111,15.2,-13.06,9.31
318683.953000,0.948,-0.073,-0.129,14.31,-12.76,9.77
318683.953000,0.944,-0.077,-0.141,11.05,-12.33,10.71
318683.968000,0.956,-0.103,-0.144,7.11,-11.69,11.23
318683.984000,0.965,-0.122,-0.136,3.81,-11.14,9.64
318684.000000,0.965,-0.13,-0.135,1.56,-10.83,7.6
318684.000000,0.971,-0.141,-0.136,0.27,-10.74,6.41
318684.000000,0.982,-0.145,-0.135,-0.43,-10.77,5.19
318684.015000,0.991,-0.141,-0.144,-0.43,-10.41,3.97
318684.015000,1.0,-0.137,-0.155,0.21,-9.52,3.23
318684.046000,1.005,-0.122,-0.156,0.34,-7.97,2.5
318684.046000,1.005,-0.114,-0.161,-0.34,-6.38,2.41
318684.046000,1.01,-0.11,-0.151,-1.4,-4.52,2.84
318684.078000,1.006,-0.112,-0.145,-2.08,-3.27,3.11
318684.078000,1.002,-0.116,-0.141,-2.29,-2.04,3.6
318684.093000,1.0,-0.117,-0.142,-2.66,-1.07,4.15
318684.109000,0.997,-0.124,-0.147,-3.2,-0.09,4.7
318684.109000,0.997,-0.137,-0.143,-3.75,0.79,4.91
318684.125000,0.992,-0.144,-0.132,-3.36,1.65,4.46
318684.140000,0.988,-0.147,-0.133,-2.23,2.32,3.6
318684.140000,0.982,-0.139,-0.132,-1.4,3.05,2.56
318684.156000,0.975,-0.13,-0.13,-0.73,3.72,1.95
318684.156000,0.969,-0.129,-0.124,-0.31,4.3,1.8
318684.171000,0.961,-0.123,-0.114,0.12,4.27,1.25
318684.187000,0.954,-0.12,-0.105,0.98,3.63,1.56
318684.187000,0.944,-0.116,-0.088,2.56,2.69,2.29
318684.203000,0.937,-0.12,-0.077,5.86,1.01,3.94
318684.203000,0.93,-0.124,-0.066,10.35,-1.43,6.41
318684.218000,0.921,-0.126,-0.051,16.66,-4.33,9.7
318684.234000,0.908,-0.132,-0.039,25.45,-8.27,14.34
318684.234000,0.916,-0.142,-0.069,34.73,-12.73,20.2
318684.250000,0.937,-0.128,-0.119,38.3,-15.41,24.14
318684.265000,0.953,-0.113,-0.162,34.36,-15.02,24.78
318684.265000,0.97,-0.12,-0.201,24.51,-12.15,22.13
318684.281000,0.974,-0.136,-0.206,10.38,-7.81,16.14
318684.296000,0.973,-0.158,-0.178,-1.92,-3.6,9.4
318684.296000,0.969,-0.177,-0.152,-9.46,-1.89,3.45
318684.312000,0.959,-0.196,-0.142,-11.9,-1.28,-0.37
318684.312000,0.951,-0.195,-0.124,-5.65,-1.86,-0.46
318684.328000,0.948,-0.18,-0.109,0.82,-3.27,3.45
318684.343000,0.95,-0.174,-0.108,6.32,-4.52,7.35
318684.343000,0.954,-0.168,-0.107,9.89,-5.58,10.07
318684.359000,0.961,-0.166,-0.112,11.2,-6.23,11.05
318684.375000,0.97,-0.159,-0.112,10.83,-6.87,10.38
318684.375000,0.984,-0.156,-0.139,9.13,-6.84,8.51
318684.390000,0.991,-0.161,-0.145,5.71,-6.38,5.58
318684.390000,0.996,-0.162,-0.154,1.43,-6.1,2.26
318684.406000,0.997,-0.164,-0.16,-2.35,-5.46,-0.95
318684.421000,0.994,-0.169,-0.155,-4.46,-4.24,-3.33
318684.437000,0.988,-0.175,-0.147,-4.76,-3.11,-4.91
318684.437000,0.984,-0.173,-0.139,-4.03,-2.26,-5.98
318684.453000,0.976,-0.162,-0.139,-2.56,-2.08,-6.47
318684.453000,0.97,-0.159,-0.146,-1.68,-2.08,-5.83
318684.468000,0.968,-0.163,-0.143,-1.37,-2.11,-4.73
318684.484000,0.966,-0.16,-0.135,-0.76,-2.11,-4.64
318684.484000,0.959,-0.16,-0.142,0.15,-2.32,-4.52
318684.500000,0.954,-0.157,-0.138,0.18,-2.29,-4.18
318684.515000,0.952,-0.146,-0.123,-0.06,-2.41,-3.57
318684.531000,0.948,-0.141,-0.124,0.49,-2.69,-2.69
318684.531000,0.947,-0.141,-0.129,1.04,-2.59,-1.95
318684.531000,0.943,-0.136,-0.133,0.7,-2.53,-1.37
318684.546000,0.944,-0.139,-0.145,-0.4,-2.2,-0.4
318684.546000,0.947,-0.147,-0.143,-1.65,-1.62,0.43
318684.562000,0.948,-0.154,-0.134,-2.23,-1.4,0.46
318684.578000,0.949,-0.164,-0.135,-1.92,-1.37,0.55
318684.593000,0.948,-0.169,-0.132,-1.04,-1.1,0.73
318684.593000,0.95,-0.169,-0.128,0.18,-1.25,1.19
318684.593000,0.951,-0.166,-0.127,1.01,-1.28,1.68
318684.609000,0.952,-0.161,-0.131,1.62,-1.53,2.32
318684.625000,0.954,-0.161,-0.139,2.32,-1.16,2.99
318684.625000,0.958,-0.161,-0.133,2.41,-0.67,3.75
318684.640000,0.957,-0.156,-0.133,2.47,-0.92,4.24
318684.671000,0.958,-0.157,-0.137,2.87,-1.16,4.67
318684.671000,0.96,-0.162,-0.139,3.14,-1.1,4.85
318684.687000,0.957,-0.167,-0.134,3.42,-1.22,4.82
318684.687000,0.958,-0.169,-0.129,3.27,-1.86,4.36
318684.703000,0.959,-0.179,-0.131,2.99,-2.81,4.03
318684.718000,0.96,-0.185,-0.134,2.9,-3.39,3.2
318684.718000,0.961,-0.191,-0.135,3.27,-3.91,2.2
318684.734000,0.963,-0.188,-0.137,4.03,-4.49,1.4
318684.734000,0.963,-0.179,-0.137,4.85,-5.01,0.82
318684.750000,0.963,-0.173,-0.143,5.68,-4.94,0.67
318684.765000,0.966,-0.17,-0.149,5.98,-4.55,0.09
318684.765000,0.967,-0.165,-0.146,5.8,-4.3,-0.89
318684.781000,0.965,-0.159,-0.145,5.55,-4.52,-1.83
318684.796000,0.967,-0.156,-0.149,5.1,-4.91,-2.53
318684.796000,0.97,-0.151,-0.145,4.55,-5.04,-3.23
318684.812000,0.968,-0.145,-0.148,3.97,-5.13,-3.69
318684.812000,0.967,-0.143,-0.152,3.48,-4.7,-3.88
318684.828000,0.964,-0.146,-0.152,3.33,-4.24,-3.78
318684.828000,0.965,-0.149,-0.157,3.3,-4.33,-3.14
318684.843000,0.963,-0.146,-0.158,3.17,-4.06,-2.47
318684.859000,0.962,-0.145,-0.162,3.3,-3.78,-1.74
318684.875000,0.962,-0.146,-0.17,3.2,-3.17,-1.04
318684.890000,0.964,-0.148,-0.171,2.5,-2.23,-0.67
318684.890000,0.96,-0.155,-0.171,1.8,-1.25,-0.67
318684.906000,0.959,-0.165,-0.171,1.34,-0.64,-0.55
318684.906000,0.959,-0.172,-0.173,1.04,-0.21,-1.04
318684.921000,0.957,-0.174,-0.169,1.28,0.4,-1.65
318684.921000,0.953,-0.17,-0.157,2.04,1.07,-2.11
318684.937000,0.95,-0.164,-0.155,3.2,0.76,-1.95
318684.953000,0.949,-0.156,-0.157,4.12,0.18,-1.46
318684.968000,0.951,-0.151,-0.162,4.55,-0.67,-1.04
318684.968000,0.952,-0.147,-0.164,4.3,-1.13,-0.76
318684.968000,0.951,-0.144,-0.159,3.72,-1.19,-0.82
318684.984000,0.95,-0.147,-0.163,3.17,-1.13,-0.76
318685.000000,0.949,-0.149,-0.162,2.41,-1.16,-0.7
318685.000000,0.949,-0.147,-0.16,1.68,-1.34,-0.76
318685.015000,0.951,-0.147,-0.163,0.79,-1.34,-0.76
318685.031000,0.954,-0.15,-0.169,-0.09,-1.13,-0.73
318685.046000,0.955,-0.153,-0.164,-0.64,-1.25,-0.79
318685.046000,0.952,-0.156,-0.167,-0.82,-1.77,-0.7
318685.062000,0.953,-0.159,-0.171,-0.34,-1.77,-0.18
318685.078000,0.954,-0.159,-0.161,0.46,-1.46,0.4
318685.078000,0.955,-0.158,-0.159,1.56,-1.71,1.07
318685.093000,0.956,-0.157,-0.166,2.56,-1.86,1.65
318685.093000,0.958,-0.157,-0.171,2.62,-2.01,1.68
318685.109000,0.959,-0.158,-0.178,1.71,-1.83,1.46
318685.125000,0.961,-0.167,-0.177,0.7,-1.22,1.19
318685.125000,0.96,-0.169,-0.167,0.06,-0.85,0.24
318685.140000,0.957,-0.165,-0.168,-0.21,-0.92,-0.58
318685.140000,0.954,-0.163,-0.169,-0.37,-0.64,-1.01
318685.156000,0.954,-0.166,-0.166,-0.31,-0.21,-1.07
318685.171000,0.955,-0.164,-0.158,0.37,-0.15,-0.92
318685.187000,0.952,-0.162,-0.157,1.68,-0.4,-0.79
318685.187000,0.951,-0.157,-0.156,2.96,-0.61,-0.37
318685.203000,0.951,-0.15,-0.158,3.51,-1.04,0.15
318685.203000,0.951,-0.15,-0.162,3.51,-1.34,0.58
318685.203000,0.952,-0.15,-0.161,2.84,-1.5,0.64
318685.218000,0.951,-0.152,-0.161,1.68,-1.46,0.27
318685.250000,0.955,-0.154,-0.165,0.55,-1.13,-0.15
318685.250000,0.954,-0.158,-0.159,0.06,-0.95,-0.82
318685.250000,0.949,-0.159,-0.154,0.03,-1.1,-1.19
318685.250000,0.948,-0.161,-0.148,0.82,-1.13,-0.79
318685.265000,0.945,-0.166,-0.153,2.32,-1.62,0.0
318685.296000,0.945,-0.168,-0.159,3.88,-2.14,0.89
318685.296000,0.948,-0.16,-0.154,4.88,-2.29,1.71
318685.312000,0.952,-0.154,-0.167,5.65,-2.35,2.53
318685.328000,0.956,-0.151,-0.178,5.28,-1.56,2.59
318685.343000,0.954,-0.147,-0.174,3.75,-0.7,2.04
318685.343000,0.955,-0.146,-0.172,1.68,-0.24,1.65
318685.343000,0.952,-0.151,-0.17,-0.06,0.09,1.13
318685.359000,0.951,-0.161,-0.167,-0.89,0.4,0.73
318685.375000,0.95,-0.168,-0.158,-0.89,0.24,0.67
318685.375000,0.949,-0.172,-0.158,0.06,-0.34,0.95
318685.390000,0.954,-0.173,-0.164,1.31,-0.76,1.56
318685.406000,0.958,-0.169,-0.16,2.41,-0.82,2.17
318685.421000,0.96,-0.167,-0.165,3.42,-0.7,2.47
318685.421000,0.961,-0.165,-0.164,3.63,-0.31,2.29
318685.421000,0.96,-0.161,-0.161,3.23,-0.15,1.77
318685.437000,0.957,-0.162,-0.169,2.84,-0.37,1.46
318685.453000,0.957,-0.164,-0.169,2.14,-0.21,1.31
318685.453000,0.958,-0.167,-0.166,1.56,0.34,1.07
318685.468000,0.956,-0.167,-0.166,1.83,0.7,0.98
318685.484000,0.956,-0.166,-0.168,2.29,0.85,0.95
318685.500000,0.955,-0.167,-0.177,2.41,1.04,1.34
318685.500000,0.957,-0.167,-0.178,1.8,1.5,1.53
318685.500000,0.961,-0.169,-0.175,1.34,2.23,1.37
318685.515000,0.959,-0.167,-0.171,1.22,2.35,0.76
318685.531000,0.958,-0.162,-0.173,0.7,2.38,0.24
318685.531000,0.953,-0.158,-0.173,0.03,2.47,-0.24
318685.546000,0.95,-0.156,-0.165,-0.31,2.11,-0.24
318685.562000,0.946,-0.155,-0.164,-0.43,1.56,-0.12
318685.562000,0.946,-0.155,-0.163,-0.24,1.22,0.34
318685.578000,0.948,-0.153,-0.157,-0.06,0.79,0.92
318685.593000,0.946,-0.157,-0.158,0.21,0.12,1.31
318685.593000,0.945,-0.162,-0.157,0.31,-0.64,1.43
318685.609000,0.944,-0.162,-0.158,0.67,-1.34,1.65
318685.625000,0.948,-0.162,-0.158,0.89,-1.71,1.83
318685.625000,0.949,-0.159,-0.164,0.4,-2.01,1.4
318685.656000,0.946,-0.155,-0.163,-0.37,-2.17,0.89
318685.656000,0.949,-0.151,-0.16,-1.53,-2.11,0.61
318685.656000,0.947,-0.152,-0.162,-2.56,-2.38,0.89
318685.656000,0.949,-0.149,-0.158,-3.3,-2.38,1.16
318685.671000,0.947,-0.149,-0.159,-3.91,-2.47,1.86
318685.687000,0.95,-0.152,-0.152,-3.85,-2.75,2.66
318685.703000,0.952,-0.149,-0.151,-3.94,-3.45,3.36
318685.718000,0.95,-0.148,-0.157,-3.81,-4.03,4.24
318685.718000,0.95,-0.15,-0.158,-4.09,-4.43,4.88
318685.734000,0.95,-0.15,-0.153,-4.67,-4.94,5.58
318685.734000,0.948,-0.156,-0.15,-4.61,-5.52,6.29
318685.750000,0.949,-0.159,-0.153,-4.27,-6.04,6.74
318685.765000,0.948,-0.161,-0.154,-3.72,-5.68,6.65
318685.765000,0.945,-0.157,-0.152,-3.72,-5.16,6.41
318685.781000,0.944,-0.157,-0.158,-4.24,-4.76,6.38
318685.796000,0.945,-0.162,-0.162,-5.65,-4.76,6.53
318685.796000,0.946,-0.16,-0.158,-7.42,-5.04,6.04
318685.812000,0.946,-0.157,-0.157,-8.45,-5.4,5.65
318685.828000,0.944,-0.161,-0.16,-8.94,-5.31,5.74
318685.828000,0.943,-0.166,-0.158,-9.61,-5.1,5.52
318685.843000,0.942,-0.167,-0.149,-9.55,-4.85,4.85
318685.843000,0.942,-0.156,-0.14,-9.55,-5.19,4.21
318685.859000,0.938,-0.149,-0.142,-9.67,-6.29,3.85
318685.859000,0.934,-0.137,-0.133,-10.32,-6.56,3.17
318685.875000,0.93,-0.112,-0.115,-11.66,-6.93,2.32
318685.890000,0.92,-0.085,-0.108,-13.86,-7.63,1.56
318685.890000,0.91,-0.059,-0.097,-20.81,-9.52,1.89
318685.906000,0.901,-0.032,-0.072,-24.72,-11.66,2.44
318685.921000,0.887,-0.005,-0.04,-28.02,-13.98,3.39
318685.921000,0.873,0.019,-0.01,-31.56,-16.24,4.09
318685.937000,0.852,0.051,0.023,-36.32,-19.44,5.95
318685.953000,0.834,0.092,0.069,-41.41,-22.37,8.45
318685.968000,0.785,0.162,0.205,-47.15,-25.42,12.94
318685.968000,0.752,0.157,0.281,-54.81,-28.38,19.29
318685.984000,0.717,0.129,0.361,-64.49,-30.61,25.79
318686.000000,0.69,0.089,0.451,-73.03,-32.75,29.79
318686.000000,0.688,0.033,0.543,-80.39,-37.75,31.95
318686.015000,0.714,-0.035,0.613,-85.91,-47.82,32.38
318686.015000,0.744,-0.082,0.643,-90.55,-63.45,29.6
318686.015000,0.781,-0.089,0.615,-94.15,-83.22,24.45
318686.031000,0.8,-0.052,0.553,-98.48,-104.8,18.04
318686.046000,0.797,-0.012,0.509,-102.48,-123.6,15.5
318686.062000,0.809,-0.007,0.45,-103.18,-139.47,18.62
318686.078000,0.819,-0.025,0.379,-98.73,-152.07,25.61
318686.078000,0.813,-0.071,0.297,-87.1,-162.02,36.93
318686.093000,0.821,-0.142,0.225,-69.15,-171.0,52.43
318686.093000,0.833,-0.225,0.114,-44.98,-182.29,70.19
318686.109000,0.849,-0.35,-0.094,-13.86,-197.73,90.06
318686.125000,0.922,-0.483,-0.383,17.12,-213.39,107.67
318686.125000,1.028,-0.526,-0.681,31.4,-222.85,113.35
318686.140000,1.086,-0.467,-0.973,23.68,-219.79,102.18
318686.156000,1.057,-0.386,-1.215,-3.23,-204.54,83.25
318686.171000,0.988,-0.373,-1.332,-40.1,-180.55,64.52
318686.171000,0.895,-0.453,-1.365,-73.09,-154.55,47.52
318686.187000,0.796,-0.536,-1.369,-98.33,-134.68,33.48
318686.187000,0.705,-0.599,-1.348,-110.57,-121.98,24.2
318686.203000,0.635,-0.657,-1.328,-108.31,-113.25,20.81
318686.218000,0.571,-0.66,-1.313,-97.9,-106.27,20.2
318686.218000,0.542,-0.596,-1.264,-83.32,-99.98,20.14
318686.234000,0.552,-0.54,-1.269,-69.92,-99.43,18.89
318686.250000,0.565,-0.483,-1.325,-65.83,-102.73,11.75
318686.250000,0.585,-0.405,-1.408,-72.76,-106.42,-3.63
318686.265000,0.624,-0.338,-1.529,-88.78,-106.66,-22.49
318686.265000,0.667,-0.309,-1.573,-105.2,-97.2,-40.07
318686.281000,0.705,-0.3,-1.584,-116.31,-80.51,-55.6
318686.281000,0.72,-0.263,-1.577,-120.98,-59.85,-69.95
318686.296000,0.727,-0.195,-1.52,-118.17,-36.93,-79.35
318686.312000,0.709,-0.128,-1.439,-108.13,-16.39,-80.78
318686.328000,0.706,-0.044,-1.421,-93.36,-0.03,-76.75
318686.328000,0.676,0.038,-1.369,-76.39,15.75,-67.32
318686.343000,0.642,0.085,-1.303,-59.63,28.23,-53.68
318686.343000,0.595,0.12,-1.255,-45.29,32.38,-39.46
318686.359000,0.578,0.132,-1.227,-32.75,35.22,-24.69
318686.359000,0.506,0.128,-1.168,-21.49,38.21,-11.23
318686.375000,0.478,0.085,-1.121,-10.65,41.41,1.83
318686.390000,0.443,0.041,-1.05,-1.07,45.26,9.55
318686.390000,0.406,0.018,-0.997,7.42,46.75,12.3
318686.406000,0.362,0.012,-0.961,14.37,47.55,12.88
318686.406000,0.338,0.009,-0.908,19.99,49.04,12.24
318686.421000,0.325,0.007,-0.832,24.02,50.6,9.98
318686.437000,0.328,0.017,-0.755,26.06,52.03,5.68
318686.453000,0.346,0.055,-0.694,23.5,55.09,-1.46
318686.453000,0.355,0.139,-0.63,14.28,61.46,-12.18
318686.468000,0.329,0.269,-0.554,-1.16,64.36,-23.77
318686.484000,0.281,0.354,-0.472,-17.94,62.9,-28.84
318686.500000,0.264,0.354,-0.391,-31.83,56.55,-26.4
318686.500000,0.257,0.315,-0.328,-40.41,42.57,-20.75
318686.515000,0.255,0.282,-0.312,-42.6,22.1,-12.51
318686.515000,0.253,0.261,-0.347,-38.15,1.22,-1.98
318686.531000,0.272,0.251,-0.412,-30.15,-15.14,10.1
318686.546000,0.293,0.24,-0.455,-21.21,-25.39,22.34
318686.546000,0.325,0.212,-0.501,-12.67,-32.93,33.33
318686.562000,0.334,0.178,-0.584,-6.53,-38.15,41.32
318686.578000,0.316,0.153,-0.645,-4.3,-39.12,45.99
318686.593000,0.32,0.115,-0.67,-4.67,-38.0,49.29
318686.593000,0.326,0.067,-0.686,-5.37,-37.93,50.9
318686.609000,0.328,0.01,-0.7,-4.58,-38.51,51.64
318686.609000,0.358,-0.057,-0.711,-1.83,-38.51,52.49
318686.625000,0.4,-0.11,-0.73,1.92,-37.78,50.39
318686.640000,0.431,-0.119,-0.769,5.07,-36.07,43.76
318686.640000,0.452,-0.097,-0.8,6.99,-32.38,34.97
318686.656000,0.482,-0.07,-0.828,6.71,-27.89,26.49
318686.656000,0.49,-0.047,-0.855,4.15,-22.61,18.19
318686.671000,0.493,-0.03,-0.858,0.46,-15.78,10.35
318686.687000,0.502,-0.018,-0.847,-3.05,-9.52,3.42
318686.687000,0.509,-0.004,-0.835,-5.25,-5.07,-2.72
318686.703000,0.514,0.009,-0.827,-6.62,-2.5,-7.14
318686.703000,0.519,0.016,-0.825,-7.54,-1.31,-9.43
318686.718000,0.53,0.016,-0.828,-8.09,-0.46,-10.35
318686.734000,0.539,0.017,-0.827,-8.09,0.31,-11.32
318686.750000,0.541,0.018,-0.829,-7.39,1.04,-11.72
318686.750000,0.539,0.023,-0.815,-5.74,2.41,-11.93
318686.750000,0.542,0.027,-0.8,-3.57,3.6,-11.47
318686.765000,0.55,0.031,-0.797,-2.17,3.78,-11.05
318686.781000,0.565,0.041,-0.795,-2.14,3.08,-10.93
318686.796000,0.578,0.05,-0.801,-3.02,1.5,-10.62
318686.796000,0.578,0.042,-0.816,-4.15,-0.15,-9.77
318686.812000,0.586,0.016,-0.821,-4.36,-0.61,-8.36
318686.828000,0.602,-0.01,-0.817,-2.72,-0.03,-7.75
318686.828000,0.625,-0.026,-0.832,0.09,0.7,-8.88
318686.843000,0.637,-0.021,-0.861,2.47,2.72,-11.26
318686.843000,0.638,0.002,-0.878,4.24,6.84,-13.89
318686.859000,0.637,0.013,-0.893,4.97,11.44,-15.72
318686.859000,0.63,0.005,-0.909,5.62,16.05,-17.18
318686.875000,0.612,-0.014,-0.908,7.32,21.94,-18.4
318686.890000,0.604,-0.035,-0.873,10.28,29.05,-19.68
318686.906000,0.613,-0.058,-0.833,13.95,35.04,-21.06
318686.906000,0.605,-0.069,-0.822,17.06,39.12,-24.23
318686.921000,0.608,-0.042,-0.792,17.85,43.03,-29.51
318686.937000,0.601,0.001,-0.772,15.9,43.95,-35.1
318686.953000,0.594,0.041,-0.769,12.09,43.24,-39.37
318686.953000,0.596,0.075,-0.76,6.9,42.09,-41.29
318686.968000,0.597,0.097,-0.742,2.23,40.44,-40.71
318686.968000,0.597,0.102,-0.718,-0.21,38.64,-37.05
318686.984000,0.602,0.088,-0.686,0.31,36.23,-30.76
318687.000000,0.614,0.065,-0.65,3.36,32.41,-23.38
318687.000000,0.625,0.048,-0.638,8.39,26.31,-16.48
318687.015000,0.639,0.048,-0.63,12.91,18.86,-11.32
318687.015000,0.651,0.042,-0.635,14.5,9.77,-7.32
318687.031000,0.665,0.031,-0.648,13.4,0.49,-5.8
318687.046000,0.674,0.039,-0.674,11.41,-6.9,-6.65
318687.046000,0.678,0.046,-0.721,9.49,-11.02,-6.99
318687.046000,0.686,0.048,-0.742,7.78,-10.59,-6.53
318687.078000,0.694,0.042,-0.736,5.89,-8.21,-6.01
318687.078000,0.688,0.039,-0.742,4.82,-5.98,-5.8
318687.078000,0.674,0.05,-0.746,3.85,-3.27,-5.92
318687.093000,0.66,0.065,-0.734,1.92,-0.82,-5.13
318687.109000,0.656,0.062,-0.712,0.15,0.15,-2.84
318687.109000,0.644,0.047,-0.701,-0.52,-0.55,-0.58
318687.125000,0.633,0.038,-0.701,-0.24,-1.65,1.07
318687.125000,0.626,0.038,-0.703,1.07,-2.62,2.2
318687.140000,0.621,0.042,-0.7,2.29,-3.72,3.45
318687.156000,0.619,0.042,-0.702,3.08,-5.13,5.1
318687.156000,0.626,0.031,-0.709,3.45,-6.26,6.41
318687.171000,0.624,0.026,-0.719,3.33,-7.05,6.13
318687.203000,0.622,0.026,-0.736,2.87,-7.81,5.25
318687.203000,0.625,0.026,-0.752,2.26,-8.3,4.43
318687.203000,0.626,0.026,-0.763,1.16,-7.93,4.15
318687.203000,0.633,0.018,-0.766,0.7,-6.41,4.09
318687.234000,0.638,0.012,-0.766,1.28,-4.76,3.42
318687.250000,0.629,0.013,-0.764,2.17,-3.45,2.29
318687.250000,0.628,0.022,-0.757,2.9,-2.69,1.74
318687.265000,0.632,0.025,-0.758,3.45,-2.72,1.89
318687.265000,0.635,0.023,-0.757,3.63,-2.17,2.29
318687.281000,0.639,0.022,-0.756,3.42,-1.28,1.8
318687.296000,0.647,0.032,-0.756,2.62,-1.07,0.31
318687.296000,0.652,0.042,-0.759,1.59,-1.22,-0.92
318687.312000,0.648,0.049,-0.767,0.4,-0.64,-1.71
318687.328000,0.636,0.047,-0.771,-1.07,0.37,-2.17
318687.328000,0.629,0.037,-0.761,-1.98,1.37,-2.29
318687.343000,0.631,0.023,-0.757,-1.86,1.56,-2.32
318687.343000,0.632,0.022,-0.757,-1.34,1.53,-2.9
318687.359000,0.631,0.032,-0.758,-0.4,1.8,-3.51
318687.375000,0.636,0.039,-0.761,0.55,2.26,-3.3
318687.375000,0.636,0.042,-0.753,1.16,2.72,-2.41
318687.390000,0.639,0.044,-0.738,2.44,3.05,-1.43
318687.406000,0.644,0.046,-0.74,3.85,2.5,-0.58
318687.406000,0.639,0.049,-0.749,4.39,2.35,-0.15
318687.421000,0.637,0.048,-0.743,4.43,2.87,0.43
318687.421000,0.641,0.037,-0.73,4.03,2.62,1.01
318687.437000,0.639,0.024,-0.736,3.27,1.43,0.95
318687.453000,0.641,0.017,-0.738,2.29,1.25,0.06
318687.468000,0.646,0.019,-0.742,1.13,0.7,-1.5
318687.468000,0.646,0.026,-0.752,-0.24,0.18,-3.08
318687.468000,0.647,0.031,-0.755,-1.71,1.5,-3.33
318687.500000,0.645,0.03,-0.751,-1.1,2.59,-2.32
318687.500000,0.643,0.026,-0.746,-0.64,2.9,-1.1
318687.515000,0.641,0.023,-0.733,0.24,1.98,0.0
318687.515000,0.647,0.017,-0.726,1.1,0.76,0.76
318687.515000,0.654,0.016,-0.73,1.22,-0.06,0.98
318687.546000,0.642,0.028,-0.741,0.76,-0.18,1.19
318687.546000,0.645,0.026,-0.739,0.34,-0.64,1.83
318687.562000,0.648,0.016,-0.735,-0.06,-1.4,2.5
318687.578000,0.646,0.011,-0.733,0.15,-2.2,2.75
318687.578000,0.642,0.004,-0.746,0.85,-2.56,2.69
318687.593000,0.64,0.002,-0.752,1.89,-2.04,2.5
318687.609000,0.639,0.006,-0.744,2.41,-1.95,2.38
318687.609000,0.639,0.008,-0.743,2.47,-2.2,2.35
318687.625000,0.641,0.01,-0.743,2.5,-1.86,2.11
318687.625000,0.645,0.009,-0.743,2.23,-1.56,1.77
318687.640000,0.64,0.009,-0.743,1.5,-1.25,0.95
318687.656000,0.632,0.012,-0.739,0.61,-1.28,0.06
318687.656000,0.63,0.01,-0.736,0.27,-1.71,-0.52
318687.671000,0.628,0.007,-0.742,0.49,-2.04,-0.73
318687.671000,0.625,0.008,-0.747,1.07,-1.71,-0.64
318687.687000,0.623,0.01,-0.739,1.95,-1.34,-0.4
318687.703000,0.623,0.009,-0.734,2.53,-1.71,0.18
318687.718000,0.628,0.006,-0.735,2.62,-2.11,0.24
318687.718000,0.635,0.011,-0.735,2.47,-2.66,-0.4
318687.718000,0.636,0.02,-0.744,2.01,-2.93,-1.07
318687.734000,0.633,0.025,-0.743,1.4,-2.75,-1.43
318687.750000,0.636,0.025,-0.736,0.61,-3.02,-1.37
318687.750000,0.637,0.023,-0.743,-0.15,-3.97,-1.22
318687.765000,0.634,0.024,-0.752,-0.55,-4.3,-0.98
318687.781000,0.637,0.018,-0.757,-0.37,-3.69,-0.24
318687.781000,0.637,0.014,-0.758,0.12,-3.02,0.21
318687.796000,0.634,0.015,-0.76,0.85,-2.66,0.09
318687.796000,0.635,0.015,-0.756,1.56,-2.38,0.21
318687.812000,0.635,0.014,-0.759,1.86,-2.32,0.34
318687.828000,0.634,0.016,-0.758,1.34,-2.14,-0.27
318687.828000,0.632,0.018,-0.755,0.4,-2.35,-0.89
318687.859000,0.636,0.016,-0.757,-0.21,-2.53,-1.16
318687.875000,0.641,0.017,-0.759,-0.43,-2.44,-1.4
318687.875000,0.635,0.017,-0.762,-0.64,-2.08,-1.86
318687.875000,0.632,0.016,-0.762,-0.95,-1.71,-1.95
318687.890000,0.636,0.01,-0.758,-0.67,-1.59,-2.08
318687.906000,0.638,0.009,-0.759,-0.03,-1.43,-2.5
318687.906000,0.637,0.016,-0.765,0.12,-0.98,-3.17
318687.921000,0.633,0.023,-0.768,0.15,-0.15,-3.51
318687.937000,0.636,0.028,-0.762,-0.34,0.21,-3.51
318687.953000,0.637,0.026,-0.766,-0.64,0.15,-3.3
318687.953000,0.638,0.022,-0.77,-0.73,0.67,-3.23
318687.968000,0.637,0.025,-0.767,-0.82,1.25,-3.3
318687.968000,0.632,0.027,-0.766,-0.43,1.83,-2.99
318687.984000,0.628,0.021,-0.755,0.52,2.62,-2.26
318688.000000,0.621,0.017,-0.745,1.62,2.69,-1.74
318688.000000,0.625,0.017,-0.738,2.35,2.01,-1.56
318688.015000,0.625,0.019,-0.743,2.96,1.1,-1.59
318688.031000,0.621,0.02,-0.746,3.75,0.58,-2.08
318688.031000,0.622,0.026,-0.747,4.12,0.03,-2.23
318688.046000,0.627,0.034,-0.751,4.36,-0.37,-1.62
318688.046000,0.628,0.038,-0.749,4.61,0.24,-0.7
318688.062000,0.625,0.041,-0.747,4.39,1.07,-0.09
318688.078000,0.62,0.04,-0.739,3.66,1.68,0.43
318688.078000,0.61,0.025,-0.732,2.93,1.71,0.92
318688.093000,0.598,0.014,-0.724,2.56,1.13,1.01
318688.109000,0.592,0.006,-0.715,2.5,-0.27,0.7
318688.109000,0.592,0.001,-0.714,2.84,-1.68,0.27
318688.109000,0.598,-0.001,-0.726,3.45,-2.93,-0.43
318688.125000,0.604,0.006,-0.734,3.48,-3.36,-1.77
318688.140000,0.602,0.015,-0.736,2.99,-3.23,-3.11
318688.140000,0.6,0.022,-0.741,1.83,-2.93,-4.36
318688.171000,0.6,0.022,-0.747,-0.09,-2.29,-5.55
318688.171000,0.604,0.02,-0.737,-1.71,-1.56,-6.65
318688.187000,0.615,0.022,-0.723,-2.23,-1.83,-7.29
318688.187000,0.631,0.02,-0.725,-1.71,-2.66,-7.14
318688.203000,0.64,0.026,-0.74,-0.79,-3.23,-7.32
318688.218000,0.63,0.044,-0.753,-0.06,-3.33,-7.26
318688.218000,0.63,0.054,-0.757,0.55,-2.9,-6.01
318688.234000,0.635,0.051,-0.757,0.52,-3.02,-4.36
318688.250000,0.638,0.043,-0.764,0.37,-3.23,-3.23
318688.250000,0.64,0.042,-0.763,0.76,-2.78,-2.41
318688.265000,0.634,0.04,-0.764,1.89,-2.23,-1.28
318688.265000,0.633,0.037,-0.763,3.2,-1.89,-0.06
318688.281000,0.629,0.033,-0.763,4.21,-2.17,1.1
318688.296000,0.628,0.022,-0.764,5.77,-2.66,2.35
318688.296000,0.631,0.013,-0.768,7.42,-3.39,3.54
318688.312000,0.629,0.012,-0.777,8.82,-3.69,4.09
318688.328000,0.63,0.015,-0.782,9.86,-2.93,4.46
318688.328000,0.629,0.015,-0.791,10.5,-1.74,4.82
318688.343000,0.624,0.014,-0.797,10.01,-0.09,4.94
318688.343000,0.616,0.005,-0.791,9.06,1.83,5.01
318688.359000,0.608,-0.022,-0.785,8.94,3.66,4.94
318688.359000,0.61,-0.048,-0.779,9.61,4.82,4.06
318688.375000,0.63,-0.052,-0.766,10.22,5.31,2.14
318688.390000,0.645,-0.041,-0.767,10.77,5.46,-0.21
318688.390000,0.647,-0.023,-0.768,10.44,6.87,-2.75
318688.406000,0.652,-0.01,-0.757,9.03,7.97,-4.73
318688.421000,0.659,-0.002,-0.754,6.78,7.51,-6.53
318688.421000,0.662,0.011,-0.76,4.15,6.47,-8.51
318688.437000,0.662,0.029,-0.762,1.59,5.98,-9.52
318688.453000,0.66,0.039,-0.757,0.09,5.83,-9.0
318688.453000,0.662,0.039,-0.758,-0.31,5.49,-7.26
318688.468000,0.66,0.037,-0.754,0.12,5.25,-4.97
318688.468000,0.659,0.033,-0.751,1.31,4.55,-2.81
318688.484000,0.665,0.026,-0.751,3.02,3.33,-0.49
318688.500000,0.668,0.02,-0.76,4.64,2.47,1.31
318688.515000,0.668,0.02,-0.768,5.31,1.92,2.14
318688.531000,0.666,0.021,-0.778,5.01,1.95,2.04
318688.531000,0.663,0.02,-0.776,3.78,2.35,1.65
318688.546000,0.663,0.014,-0.776,2.47,2.75,1.07
318688.546000,0.66,0.01,-0.773,1.65,3.63,0.09
318688.562000,0.657,0.015,-0.761,0.95,4.58,-0.92
318688.578000,0.652,0.02,-0.754,0.52,4.64,-1.28
318688.578000,0.648,0.023,-0.758,0.24,4.7,-1.31
318688.593000,0.644,0.022,-0.755,-0.21,5.22,-0.92
318688.609000,0.644,0.019,-0.741,-0.43,5.55,-0.43
318688.609000,0.644,0.015,-0.736,-0.21,5.13,-0.24
318688.625000,0.641,0.02,-0.737,0.03,4.33,-0.09
318688.625000,0.638,0.025,-0.734,-0.4,4.15,0.06
318688.640000,0.642,0.027,-0.729,-1.01,4.15,0.09
318688.640000,0.645,0.03,-0.723,-1.8,3.66,0.09
318688.656000,0.642,0.033,-0.728,-2.44,3.05,0.31
318688.671000,0.637,0.032,-0.723,-3.05,2.99,0.55
318688.687000,0.63,0.027,-0.715,-3.45,2.87,1.22
318688.687000,0.631,0.022,-0.708,-3.17,1.92,2.17
318688.703000,0.631,0.016,-0.706,-2.5,0.76,3.08
318688.703000,0.633,0.012,-0.701,-1.68,-0.21,3.85
318688.718000,0.632,0.01,-0.712,-1.07,-1.34,4.06
318688.734000,0.63,0.01,-0.721,-0.95,-2.11,3.97
318688.750000,0.631,0.011,-0.723,-1.46,-2.66,3.85
318688.750000,0.631,0.005,-0.731,-2.26,-2.87,3.69
318688.765000,0.632,0.001,-0.737,-2.9,-2.72,2.84
318688.765000,0.633,0.001,-0.74,-3.27,-2.04,1.92
318688.781000,0.631,0.004,-0.743,-3.51,-1.46,1.22
318688.796000,0.627,0.006,-0.741,-3.66,-0.67,1.07
318688.796000,0.625,0.002,-0.735,-3.2,0.03,1.4
318688.812000,0.629,-0.005,-0.729,-2.47,0.12,1.98
318688.812000,0.633,-0.009,-0.729,-1.83,-0.55,1.77
318688.828000,0.631,0.001,-0.732,-1.25,-1.31,1.07
318688.828000,0.628,0.006,-0.732,-1.01,-1.74,0.92
318688.843000,0.637,0.008,-0.731,-0.64,-1.95,1.28
318688.843000,0.64,0.012,-0.732,-0.49,-2.08,1.43
318688.859000,0.639,0.014,-0.731,-0.55,-2.38,1.25
318688.875000,0.642,0.016,-0.738,-1.07,-2.78,1.1
318688.875000,0.642,0.015,-0.74,-1.62,-3.14,1.1
318688.906000,0.638,0.016,-0.743,-2.08,-2.84,1.25
318688.921000,0.639,0.017,-0.734,-2.35,-2.41,1.5
318688.921000,0.64,0.013,-0.735,-2.59,-2.78,1.46
318688.937000,0.633,0.013,-0.74,-2.69,-3.05,1.19
318688.937000,0.626,0.014,-0.738,-3.08,-3.23,1.22
318688.953000,0.624,0.01,-0.739,-3.02,-3.48,1.65
318688.968000,0.622,0.005,-0.74,-2.23,-3.88,2.17
318688.968000,0.623,-0.002,-0.745,-1.22,-4.0,2.56
318688.984000,0.627,-0.006,-0.755,-0.43,-3.63,2.41
318689.000000,0.63,-0.004,-0.765,-0.18,-3.14,1.83
318689.000000,0.629,-0.001,-0.776,-0.58,-2.32,1.1
318689.015000,0.629,-0.005,-0.772,-0.98,-0.98,0.4
318689.015000,0.636,-0.016,-0.762,-1.04,0.24,-0.06
318689.031000,0.643,-0.024,-0.765,-0.64,1.01,-1.01
318689.046000,0.642,-0.013,-0.764,-0.34,1.98,-2.62
318689.062000,0.64,0.002,-0.754,-0.12,2.5,-3.66
318689.062000,0.644,0.006,-0.747,-0.49,1.71,-4.06
318689.062000,0.648,0.01,-0.744,-0.95,1.16,-4.24
318689.078000,0.647,0.019,-0.737,-0.76,0.64,-3.88
318689.093000,0.649,0.025,-0.731,-0.49,-0.34,-3.33
318689.093000,0.649,0.03,-0.731,-0.61,-1.19,-2.53
318689.109000,0.65,0.048,-0.734,-0.79,-1.59,-1.1
318689.125000,0.655,0.043,-0.735,-0.73,-2.23,0.67
318689.125000,0.654,0.041,-0.734,-0.82,-2.75,1.8
318689.140000,0.652,0.041,-0.737,-1.5,-2.99,2.32
318689.140000,0.642,0.044,-0.753,-2.14,-2.99,2.53
318689.156000,0.631,0.047,-0.759,-2.99,-2.78,3.11
318689.171000,0.619,0.038,-0.773,-3.63,-2.81,4.49
318689.171000,0.606,0.014,-0.8,-3.2,-2.38,6.23
318689.187000,0.586,-0.015,-0.831,-1.01,-0.82,7.72
318689.203000,0.563,-0.057,-0.895,3.72,1.31,8.82
318689.203000,0.521,-0.125,-1.008,11.05,3.39,10.47
318689.218000,0.471,-0.249,-1.152,23.01,6.29,13.67
318689.218000,0.427,-0.396,-1.328,39.61,10.5,16.39
318689.234000,0.39,-0.499,-1.517,55.97,19.32,16.69
318689.250000,0.332,-0.545,-1.72,80.57,39.28,9.55
318689.250000,0.28,-0.463,-1.883,108.16,70.53,-6.93
318689.265000,0.203,-0.233,-2.026,130.31,107.33,-25.7
318689.281000,0.142,0.006,-2.08,143.53,150.88,-34.3
318689.281000,0.056,0.126,-1.99,146.52,191.23,-30.82
318689.296000,-0.009,0.123,-1.8,146.76,222.21,-22.52
318689.312000,0.012,0.09,-1.581,148.44,239.08,-18.25
318689.312000,0.071,0.092,-1.398,152.68,242.65,-21.42
318689.328000,0.141,0.125,-1.242,160.07,240.24,-28.2
318689.328000,0.2,0.176,-1.105,165.11,234.75,-35.49
318689.343000,0.239,0.212,-0.963,163.98,227.12,-40.56
318689.343000,0.267,0.171,-0.833,158.85,219.18,-42.54
318689.375000,0.315,0.075,-0.704,151.62,210.82,-44.71
318689.390000,0.369,0.017,-0.582,143.16,200.11,-52.28
318689.390000,0.425,0.024,-0.46,135.29,186.93,-62.75
318689.406000,0.479,0.068,-0.364,126.83,172.64,-72.21
318689.421000,0.516,0.094,-0.307,114.87,159.37,-77.61
318689.421000,0.561,0.083,-0.259,101.14,147.98,-79.96
318689.437000,0.673,0.09,-0.179,86.89,135.65,-84.69
318689.453000,0.788,0.148,-0.146,72.39,118.14,-94.42
318689.453000,0.868,0.2,-0.142,57.86,100.59,-103.34
318689.468000,0.923,0.214,-0.114,46.72,88.26,-109.99
318689.468000,0.968,0.204,-0.081,40.8,79.5,-115.27
318689.484000,0.967,0.15,-0.025,41.69,76.72,-118.53
318689.484000,0.955,0.096,0.082,48.37,76.33,-122.99
318689.500000,0.909,0.057,0.197,54.69,75.56,-125.34
318689.515000,0.906,0.028,0.331,56.73,68.48,-121.77
318689.515000,0.985,0.041,0.411,52.71,57.37,-117.77
318689.531000,0.996,0.134,0.363,36.07,43.98,-120.79
318689.546000,0.95,0.263,0.392,6.65,38.45,-120.98
318689.546000,0.881,0.41,0.518,-22.16,39.28,-113.8
318689.562000,0.821,0.558,0.683,-40.83,36.35,-98.73
318689.562000,0.708,0.639,0.848,-52.25,22.68,-78.25
318689.578000,0.601,0.626,0.955,-55.48,-3.05,-47.46
318689.593000,0.563,0.568,0.911,-54.99,-40.41,-12.24
318689.593000,0.631,0.463,0.698,-58.38,-82.0,22.4
318689.609000,0.773,0.336,0.504,-66.29,-110.75,52.52
318689.625000,0.962,0.169,0.351,-69.89,-120.76,74.1
318689.625000,1.121,-0.0,0.223,-69.58,-117.1,84.2
318689.640000,1.251,-0.152,0.119,-67.63,-107.09,83.9
318689.656000,1.362,-0.24,0.068,-66.19,-92.35,74.86
318689.656000,1.457,-0.224,0.034,-66.81,-75.84,60.58
318689.671000,1.493,-0.143,-0.014,-68.67,-58.23,45.35
318689.687000,1.495,-0.069,-0.004,-70.01,-37.02,34.18
318689.687000,1.46,-0.005,0.04,-69.28,-15.56,25.39
318689.687000,1.382,0.064,0.079,-65.22,3.6,18.07
318689.718000,1.293,0.118,0.128,-58.84,19.68,13.03
318689.718000,1.191,0.172,0.154,-53.74,29.76,10.04
318689.734000,1.093,0.214,0.16,-50.14,36.62,10.16
318689.734000,1.022,0.224,0.181,-47.27,42.27,14.13
318689.750000,0.978,0.182,0.18,-45.47,43.82,19.75
318689.750000,0.969,0.123,0.161,-43.15,42.7,22.95
318689.781000,0.976,0.084,0.141,-40.07,41.75,22.74
318689.781000,0.976,0.053,0.114,-36.59,40.5,21.21
318689.796000,0.984,0.012,0.069,-33.36,38.64,19.68
318689.796000,0.994,-0.019,0.048,-30.85,36.29,16.69
318689.812000,0.988,-0.03,0.03,-27.13,33.48,12.27
318689.828000,0.974,-0.039,0.031,-20.91,31.62,9.49
318689.828000,0.964,-0.051,0.031,-14.31,28.5,7.66
318689.843000,0.955,-0.052,0.021,-7.81,23.44,5.74
318689.859000,0.954,-0.038,0.012,-0.7,19.17,3.85
318689.859000,0.949,-0.01,0.001,6.16,15.44,1.46
318689.875000,0.943,0.038,-0.015,10.8,11.26,-2.35
318689.890000,0.939,0.096,-0.04,12.24,6.59,-6.13
318689.890000,0.934,0.138,-0.07,10.16,2.17,-8.33
318689.906000,0.932,0.161,-0.086,6.26,-1.62,-8.64
318689.906000,0.939,0.166,-0.085,2.99,-5.74,-7.05
318689.921000,0.95,0.152,-0.094,2.69,-8.91,-4.55
318689.937000,0.966,0.129,-0.095,4.12,-10.22,-1.13
318689.937000,0.98,0.103,-0.102,6.07,-11.2,2.01
318689.953000,0.997,0.071,-0.119,7.9,-12.05,4.39
318689.953000,1.011,0.039,-0.135,10.28,-10.74,4.97
318689.968000,1.02,0.01,-0.151,12.09,-8.15,4.64
318689.984000,1.021,-0.013,-0.149,11.6,-6.23,2.72
318690.000000,1.009,-0.018,-0.143,9.92,-5.28,-0.82
318690.000000,0.999,-0.016,-0.135,9.16,-3.85,-4.49
318690.015000,0.989,0.008,-0.117,8.45,-2.9,-8.24
318690.015000,0.977,0.029,-0.11,8.0,-2.26,-10.93
318690.031000,0.975,0.047,-0.105,7.32,-1.31,-12.67
318690.031000,0.967,0.079,-0.118,5.89,-1.25,-14.86
318690.062000,0.963,0.106,-0.115,3.42,-1.37,-15.23
318690.062000,0.961,0.118,-0.112,0.15,-1.89,-13.55
318690.062000,0.96,0.11,-0.115,-2.5,-2.23,-10.19
318690.078000,0.958,0.092,-0.104,-4.33,-1.83,-6.44
318690.078000,0.951,0.077,-0.092,-5.07,-1.83,-3.02
318690.093000,0.951,0.068,-0.094,-5.22,-2.66,-1.1
318690.109000,0.948,0.079,-0.097,-6.78,-4.06,-1.5
318690.125000,0.946,0.101,-0.098,-10.25,-6.01,-3.85
318690.125000,0.941,0.134,-0.095,-15.66,-8.64,-8.09
318690.140000,0.942,0.166,-0.097,-23.29,-12.12,-12.91
318690.140000,0.943,0.189,-0.108,-32.9,-15.63,-17.55
318690.171000,0.945,0.186,-0.122,-42.91,-18.46,-20.72
318690.171000,0.953,0.152,-0.145,-49.93,-20.6,-21.49
318690.171000,0.97,0.101,-0.147,-50.51,-20.72,-18.86
318690.187000,0.991,0.051,-0.149,-44.56,-19.04,-14.34
318690.203000,1.011,0.008,-0.166,-34.97,-17.0,-8.64
318690.218000,1.024,-0.014,-0.176,-23.96,-14.34,-3.81
318690.218000,1.031,-0.019,-0.179,-13.49,-11.32,-0.43
318690.234000,1.028,-0.006,-0.172,-4.67,-8.3,0.98
318690.234000,1.009,0.021,-0.167,0.76,-6.47,0.61
318690.250000,0.993,0.059,-0.157,2.17,-5.16,-1.04
318690.265000,0.967,0.093,-0.138,0.18,-4.21,-2.93
318690.265000,0.95,0.111,-0.13,-3.85,-4.49,-3.48
318690.265000,0.939,0.105,-0.118,-7.78,-5.28,-3.02
318690.281000,0.932,0.095,-0.105,-10.25,-5.83,-2.84
318690.296000,0.925,0.084,-0.099,-10.77,-6.41,-1.59
318690.312000,0.926,0.053,-0.112,-8.79,-7.2,1.77
318690.328000,0.933,0.03,-0.105,-4.88,-6.78,4.82
318690.328000,0.934,0.036,-0.108,-0.67,-6.59,6.2
318690.343000,0.94,0.036,-0.132,2.59,-6.71,7.69
318690.359000,0.954,0.041,-0.143,4.27,-5.89,7.78
318690.359000,0.956,0.054,-0.157,3.42,-5.34,6.53
318690.375000,0.956,0.062,-0.161,0.92,-4.64,5.28
318690.375000,0.959,0.057,-0.161,-1.83,-4.09,4.52
318690.390000,0.962,0.051,-0.158,-3.81,-3.75,3.78
318690.406000,0.962,0.049,-0.158,-4.24,-3.08,3.27
318690.406000,0.965,0.036,-0.161,-2.44,-1.74,4.27
318690.421000,0.97,0.031,-0.157,1.53,0.06,5.28
318690.437000,0.969,0.036,-0.145,7.17,1.68,5.95
318690.437000,0.969,0.049,-0.134,13.76,3.05,6.23
318690.453000,0.965,0.07,-0.14,18.8,3.75,5.95
318690.468000,0.961,0.09,-0.136,19.87,4.06,5.92
318690.468000,0.954,0.104,-0.12,18.46,4.06,5.8
318690.484000,0.951,0.11,-0.105,15.9,3.48,5.34
318690.484000,0.952,0.108,-0.1,12.88,2.29,4.43
318690.500000,0.954,0.105,-0.097,9.61,0.52,3.17
318690.515000,0.959,0.1,-0.099,6.2,-2.04,2.29
318690.515000,0.96,0.088,-0.108,3.78,-4.82,2.04
318690.531000,0.968,0.073,-0.115,3.23,-6.35,2.29
318690.546000,0.972,0.063,-0.126,3.75,-7.35,2.47
318690.562000,0.976,0.044,-0.15,4.79,-8.15,3.57
318690.562000,0.984,0.026,-0.169,6.35,-8.12,5.25
318690.562000,0.991,0.023,-0.182,8.48,-6.84,5.98
318690.578000,0.986,0.028,-0.193,10.01,-5.46,6.23
318690.593000,0.991,0.027,-0.208,10.47,-3.81,6.65
318690.593000,0.997,0.027,-0.217,9.46,-2.35,5.83
318690.609000,0.997,0.041,-0.219,7.2,-1.16,3.23
318690.625000,0.99,0.069,-0.217,3.78,-0.27,-0.4
318690.625000,0.982,0.087,-0.223,-0.52,0.31,-3.11
318690.640000,0.975,0.089,-0.218,-7.29,2.87,-4.09
318690.640000,0.964,0.088,-0.2,-8.12,3.48,-2.69
318690.656000,0.949,0.088,-0.192,-7.97,4.0,-0.58
318690.671000,0.936,0.086,-0.183,-7.63,4.18,2.01
318690.687000,0.927,0.089,-0.174,-6.5,4.73,5.4
318690.703000,0.927,0.072,-0.165,-5.43,5.25,9.13
318690.703000,0.928,0.06,-0.158,-5.1,5.46,11.78
318690.718000,0.934,0.055,-0.149,-4.43,5.95,13.12
318690.718000,0.935,0.061,-0.143,-3.11,6.44,13.79
318690.734000,0.941,0.057,-0.14,-1.8,6.38,15.14
318690.750000,0.947,0.044,-0.137,-0.98,5.65,15.75
318690.750000,0.956,0.036,-0.138,-0.85,4.46,15.29
318690.765000,0.969,0.031,-0.141,-1.59,3.33,13.79
318690.765000,0.979,0.031,-0.145,-2.81,2.72,11.54
318690.781000,0.982,0.029,-0.142,-3.91,2.53,9.58
318690.796000,0.985,0.023,-0.134,-4.12,2.84,8.03
318690.796000,0.988,0.016,-0.123,-3.88,2.99,6.74
318690.812000,0.991,0.009,-0.12,-2.9,2.59,5.62
318690.828000,0.997,0.004,-0.116,-1.59,2.35,5.07
318690.828000,0.998,0.006,-0.114,-0.21,2.41,4.09
318690.843000,0.998,0.003,-0.119,1.13,2.44,3.75
318690.859000,1.0,-0.0,-0.112,2.47,2.5,3.6
318690.859000,1.003,-0.003,-0.111,4.21,1.89,2.53
318690.875000,1.003,0.002,-0.118,5.92,1.1,0.85
318690.875000,0.997,0.012,-0.128,6.32,0.49,-0.7
318690.890000,0.99,0.019,-0.129,5.98,0.46,-1.8
318690.906000,0.983,0.025,-0.124,6.38,0.76,-2.11
318690.906000,0.972,0.034,-0.126,7.32,0.92,-2.44
318690.921000,0.959,0.055,-0.127,7.48,1.07,-2.5
318690.921000,0.947,0.07,-0.118,6.93,0.89,-1.46
318690.937000,0.936,0.072,-0.121,6.65,0.18,0.27
318690.953000,0.932,0.072,-0.114,6.65,0.03,1.98
318690.953000,0.926,0.062,-0.115,7.72,-0.37,3.85
318690.968000,0.924,0.055,-0.127,7.75,-1.01,4.82
318690.984000,0.936,0.039,-0.141,6.81,-2.23,5.8
318690.984000,0.952,0.017,-0.15,5.49,-3.51,6.84
318691.000000,0.965,0.008,-0.158,4.91,-3.78,6.68
318691.015000,0.974,0.007,-0.17,5.31,-3.08,5.86
318691.015000,0.984,0.001,-0.184,5.43,-1.86,5.34
318691.031000,0.996,-0.006,-0.187,4.85,-0.64,4.85
318691.031000,1.0,-0.005,-0.186,4.36,0.34,4.15
318691.046000,1.002,-0.005,-0.181,4.46,1.22,3.66
318691.046000,1.002,-0.003,-0.174,4.7,2.23,2.81
318691.078000,0.999,0.0,-0.176,4.91,2.9,1.74
318691.078000,0.998,0.002,-0.178,4.91,3.45,0.89
318691.093000,0.998,0.01,-0.172,4.61,4.0,0.15
318691.109000,0.987,0.015,-0.176,3.78,4.12,-0.49
318691.109000,0.985,0.018,-0.169,2.72,4.58,-1.37
318691.125000,0.981,0.023,-0.165,1.8,5.01,-2.44
318691.125000,0.976,0.03,-0.165,0.95,5.01,-3.08
318691.140000,0.97,0.033,-0.161,0.58,5.16,-2.99
318691.156000,0.968,0.027,-0.157,0.43,5.01,-2.59
318691.156000,0.963,0.023,-0.15,0.73,4.58,-2.5
318691.156000,0.959,0.021,-0.151,1.62,4.24,-2.23
318691.171000,0.957,0.021,-0.148,2.26,4.03,-1.53
318691.187000,0.955,0.022,-0.146,2.32,3.42,-0.98
318691.203000,0.952,0.019,-0.148,1.98,2.53,-0.43
318691.218000,0.956,0.014,-0.148,1.59,1.62,-0.03
318691.218000,0.958,0.019,-0.154,1.56,1.16,-0.76
318691.234000,0.959,0.03,-0.159,1.1,0.43,-1.62
318691.234000,0.957,0.041,-0.164,-0.46,-0.85,-2.04
318691.250000,0.956,0.048,-0.165,-2.93,-1.98,-1.92
318691.265000,0.952,0.056,-0.152,-5.13,-2.66,-1.34
318691.265000,0.949,0.054,-0.152,-6.04,-2.99,-0.15
318691.281000,0.952,0.045,-0.149,-6.35,-2.96,1.43
318691.281000,0.955,0.044,-0.142,-5.65,-2.96,2.9
318691.296000,0.955,0.043,-0.146,-4.0,-3.05,4.18
318691.312000,0.961,0.037,-0.148,-2.72,-2.93,5.25
318691.312000,0.965,0.038,-0.149,-2.23,-2.59,5.4
318691.312000,0.968,0.037,-0.151,-2.47,-2.5,5.37
318691.328000,0.971,0.036,-0.143,-3.14,-2.47,5.19
318691.343000,0.971,0.03,-0.145,-3.91,-3.2,5.04
318691.343000,0.971,0.026,-0.145,-5.37,-4.0,4.61
318691.375000,0.97,0.029,-0.148,-7.02,-4.46,3.85
318691.390000,0.971,0.023,-0.151,-8.09,-4.27,3.72
318691.390000,0.973,0.013,-0.141,-8.3,-3.36,3.94
318691.406000,0.971,0.007,-0.139,-8.03,-3.17,4.18
318691.406000,0.974,-0.005,-0.131,-6.71,-2.84,5.01
318691.421000,0.972,-0.006,-0.119,-4.33,-2.29,5.55
318691.437000,0.968,0.001,-0.116,-1.77,-2.08,5.62
318691.437000,0.963,0.009,-0.112,0.15,-1.77,5.65
318691.453000,0.962,0.017,-0.106,1.19,-2.53,5.83
318691.453000,0.963,0.026,-0.113,1.43,-4.55,5.71
318691.468000,0.968,0.024,-0.13,1.01,-7.08,5.77
318691.484000,0.975,0.022,-0.14,-0.24,-9.22,5.01
318691.484000,0.981,0.026,-0.153,-2.01,-10.59,3.42
318691.500000,0.989,0.024,-0.167,-3.88,-11.08,1.74
318691.515000,1.002,0.015,-0.186,-6.29,-11.75,0.12
318691.515000,1.016,0.01,-0.196,-8.39,-12.36,-2.72
318691.531000,1.021,0.013,-0.211,-10.22,-13.21,-5.92
318691.546000,1.022,0.012,-0.216,-11.38,-12.7,-7.78
318691.546000,1.019,0.012,-0.207,-11.44,-10.74,-8.79
318691.562000,1.01,0.014,-0.203,-10.38,-9.06,-9.34
318691.562000,1.002,0.015,-0.202,-8.33,-7.66,-8.91
318691.578000,0.994,0.018,-0.195,-6.62,-6.5,-8.12
318691.578000,0.982,0.027,-0.185,-5.16,-5.28,-7.35
318691.593000,0.972,0.034,-0.184,-4.12,-4.18,-6.44
318691.609000,0.965,0.031,-0.181,-3.66,-3.14,-5.83
318691.625000,0.961,0.033,-0.168,-4.03,-2.62,-5.86
318691.625000,0.95,0.039,-0.165,-5.43,-2.84,-6.44
318691.625000,0.943,0.038,-0.163,-7.81,-3.05,-6.59
318691.640000,0.943,0.025,-0.15,-9.67,-2.59,-6.53
318691.656000,0.938,0.022,-0.14,-11.2,-2.56,-7.29
318691.656000,0.93,0.024,-0.134,-12.02,-2.72,-7.69
318691.671000,0.926,0.024,-0.132,-11.63,-2.9,-7.32
318691.687000,0.931,0.018,-0.13,-10.59,-3.2,-6.13
318691.703000,0.933,0.022,-0.129,-9.4,-3.57,-4.88
318691.718000,0.935,0.021,-0.138,-7.78,-3.66,-3.17
318691.718000,0.943,0.011,-0.142,-6.04,-3.02,-1.07
318691.734000,0.948,0.009,-0.143,-4.3,-2.29,0.58
318691.734000,0.948,0.008,-0.146,-2.2,-1.8,2.11
318691.734000,0.948,0.002,-0.156,-0.06,-1.34,3.42
