t_monotonic,ax,ay,az,gx,gy,gz
1638183.463375,0.24,-0.811,-0.495,-1.83,0.27,-1.59
1638183.507826,0.243,-0.808,-0.516,1.04,-2.04,-0.55
1638183.554558,0.244,-0.82,-0.506,1.37,0.49,1.16
1638183.604233,0.24,-0.825,-0.505,0.52,-1.56,-0.43
1638183.653853,0.244,-0.812,-0.516,-0.27,-2.26,-0.89
1638183.703625,0.243,-0.815,-0.508,2.66,-0.52,1.65
1638183.753328,0.229,-0.813,-0.498,-0.89,4.61,3.91
1638183.797841,0.24,-0.822,-0.507,-2.59,2.69,5.04
1638183.844682,0.241,-0.835,-0.516,-0.4,2.9,7.11
1638183.894467,0.226,-0.832,-0.489,-1.22,4.12,2.9
1638183.944363,0.236,-0.84,-0.5,-4.3,0.67,-1.83
1638183.993609,0.235,-0.847,-0.474,2.32,-3.23,-9.61
1638184.033629,0.241,-0.79,-0.526,2.32,-6.13,-9.83
1638184.078161,0.244,-0.797,-0.504,-0.95,-4.46,-0.73
1638184.132306,0.238,-0.807,-0.494,0.18,-5.1,2.38
1638184.174401,0.232,-0.839,-0.512,-1.77,-1.25,1.5
1638184.217266,0.226,-0.834,-0.509,-0.79,-0.49,-0.61
1638184.259246,0.23,-0.81,-0.515,-1.04,1.56,-2.23
1638184.304607,0.225,-0.818,-0.504,-1.07,2.75,-2.14
1638184.354277,0.231,-0.804,-0.513,0.73,2.59,-1.31
1638184.403966,0.242,-0.818,-0.516,0.7,2.78,-1.86
1638184.453732,0.245,-0.827,-0.502,0.49,4.21,-5.1
1638184.503512,0.255,-0.817,-0.516,1.07,1.37,-6.16
1638184.547941,0.264,-0.792,-0.507,-4.85,-0.4,-5.52
1638184.594933,0.257,-0.81,-0.514,1.5,-2.17,3.02
1638184.644624,0.25,-0.831,-0.502,-0.4,0.43,0.82
1638184.693944,0.258,-0.797,-0.523,-1.16,-1.16,-0.09
1638184.743848,0.254,-0.789,-0.497,-6.29,1.68,16.05
1638184.793905,0.218,-0.801,-0.5,-5.74,5.58,18.77
1638184.844168,0.256,-0.871,-0.491,-2.72,9.83,12.82
1638184.894209,0.225,-0.86,-0.506,5.04,3.11,-0.79
1638184.943897,0.235,-0.837,-0.506,0.82,-1.04,-6.29
1638184.993814,0.239,-0.822,-0.491,1.92,-1.46,-12.45
1638185.043782,0.248,-0.784,-0.518,1.28,-2.11,-7.51
1638185.093502,0.25,-0.811,-0.503,-1.1,0.79,1.25
1638185.137970,0.241,-0.834,-0.506,0.15,3.08,-2.2
1638185.184722,0.203,-0.846,-0.521,-2.11,4.24,-8.03
1638185.237665,0.265,-0.828,-0.522,-7.84,17.33,-14.98
1638185.278093,0.313,-0.762,-0.519,-13.0,11.69,-9.13
1638185.328010,0.332,-0.732,-0.542,-1.1,3.05,-0.61
1638185.371003,0.24,-0.797,-0.452,-11.14,2.66,21.79
1638185.414852,0.292,-0.863,-0.494,-0.34,-12.24,-7.11
1638185.457922,0.174,-0.735,-0.491,6.13,-28.72,-13.7
1638185.507874,0.329,-0.834,-0.624,-17.61,-35.55,3.6
1638185.553500,0.271,-0.728,-0.582,-18.28,12.33,1.92
1638185.593914,0.195,-0.805,-0.534,-48.59,46.14,11.69
1638185.633941,0.223,-0.832,-0.434,29.6,-18.4,-10.56
1638185.684551,0.214,-0.718,-0.686,64.76,-54.17,4.82
1638185.724741,0.253,-0.831,-0.546,13.79,-8.58,1.74
1638185.774225,0.266,-0.81,-0.478,-9.43,16.3,5.22
1638185.824469,0.226,-0.819,-0.481,5.07,-1.19,2.04
1638185.873922,0.234,-0.823,-0.527,5.22,-1.8,-3.6
1638185.915897,0.231,-0.824,-0.531,0.76,1.31,-3.78
1638185.968047,0.238,-0.811,-0.511,-1.43,1.34,-4.09
1638186.014988,0.243,-0.814,-0.501,-1.43,-2.04,-3.6
1638186.064792,0.236,-0.813,-0.504,2.56,-7.54,-2.99
1638186.114679,0.224,-0.828,-0.506,19.35,-32.17,-3.72
1638186.154818,0.223,-0.823,-0.537,28.41,-39.95,-1.07
1638186.194932,0.225,-0.83,-0.537,7.54,-23.16,-7.39
1638186.244554,0.224,-0.81,-0.486,-10.19,17.27,-0.82
1638186.284684,0.121,-0.701,-0.432,-2.01,13.37,15.99
1638186.337879,0.226,-0.779,-0.547,13.06,-11.81,-1.1
1638186.384825,0.241,-0.846,-0.511,-1.01,3.54,0.15
1638186.424854,0.198,-0.835,-0.471,-15.84,15.44,0.46
1638186.474420,0.193,-0.787,-0.512,0.76,-3.69,-7.81
1638186.524322,0.228,-0.832,-0.508,3.3,-8.82,2.44
1638186.574648,0.201,-0.812,-0.475,-16.72,16.39,-4.39
1638186.624496,0.222,-0.845,-0.51,9.0,-3.75,0.31
1638186.674091,0.226,-0.845,-0.502,3.05,-12.76,2.69
1638186.724067,0.227,-0.826,-0.503,-2.47,0.55,1.83
1638186.764130,0.205,-0.797,-0.496,-4.18,2.78,3.08
1638186.804632,0.22,-0.814,-0.494,-3.39,0.7,6.04
1638186.854694,0.217,-0.814,-0.484,-0.61,9.7,14.01
1638186.904773,0.196,-0.85,-0.487,4.03,5.28,9.22
1638186.954168,0.188,-0.848,-0.51,-2.17,-6.07,0.18
1638187.003851,0.188,-0.84,-0.508,-3.57,-3.05,1.98
1638187.053491,0.167,-0.814,-0.495,-2.14,7.87,7.93
1638187.103461,0.17,-0.822,-0.51,-15.26,8.12,5.01
1638187.143774,0.187,-0.754,-0.579,-12.76,26.15,23.56
1638187.183943,0.206,-0.82,-0.491,-12.94,56.79,29.69
1638187.223958,0.144,-0.845,-0.434,7.78,39.98,19.38
1638187.264166,0.17,-0.918,-0.507,14.16,16.54,8.7
1638187.314336,0.201,-0.903,-0.504,12.39,-1.53,-19.07
1638187.364577,0.216,-0.882,-0.486,0.24,-2.75,-17.18
1638187.417492,0.214,-0.801,-0.473,1.62,-6.59,-18.19
1638187.467869,0.27,-0.767,-0.49,-7.2,4.15,-9.61
1638187.517710,0.249,-0.76,-0.484,-5.01,14.47,-1.16
1638187.567992,0.287,-0.834,-0.499,9.37,1.68,10.68
1638187.618020,0.187,-0.851,-0.483,-1.34,10.28,13.06
1638187.668195,0.233,-0.858,-0.467,5.58,-7.42,1.56
1638187.715030,0.209,-0.843,-0.506,3.45,-4.36,-2.69
1638187.764495,0.229,-0.755,-0.461,-13.86,-5.49,-8.58
1638187.804541,0.229,-0.8,-0.51,-21.76,-5.68,-10.65
1638187.857618,0.266,-0.776,-0.522,-16.57,23.26,0.09
1638187.903256,0.228,-0.88,-0.453,14.22,-9.0,-6.9
1638187.943547,0.205,-0.78,-0.559,22.19,-21.73,-5.86
1638187.984029,0.245,-0.894,-0.527,18.65,-31.59,5.07
1638188.033617,0.245,-0.81,-0.481,-3.11,2.78,-4.39
1638188.078145,0.241,-0.808,-0.457,1.86,2.53,4.76
1638188.124908,0.222,-0.839,-0.478,2.23,-1.95,1.68
1638188.174514,0.226,-0.851,-0.482,1.74,1.59,-1.13
1638188.224181,0.224,-0.857,-0.492,0.7,2.01,-2.93
1638188.284405,0.243,-0.849,-0.49,0.37,2.35,-3.69
1638188.333649,0.229,-0.817,-0.471,-1.07,0.55,-0.79
1638188.373837,0.236,-0.827,-0.472,-1.68,1.25,0.18
1638188.414693,0.239,-0.829,-0.477,-1.13,1.34,0.4
1638188.464683,0.234,-0.837,-0.493,0.21,0.52,0.82
1638188.514185,0.239,-0.846,-0.477,0.79,1.31,0.7
1638188.563544,0.227,-0.846,-0.473,1.92,0.09,-1.4
1638188.608444,0.227,-0.824,-0.49,2.23,0.43,-2.81
1638188.658007,0.234,-0.835,-0.478,0.12,-1.37,0.98
1638188.704741,0.228,-0.819,-0.496,0.0,-3.45,-1.77
1638188.754443,0.243,-0.843,-0.486,0.95,-2.08,-2.75
1638188.803971,0.232,-0.846,-0.472,1.46,-1.62,-4.06
1638188.853892,0.239,-0.813,-0.473,-0.55,-5.74,-2.96
1638188.903589,0.24,-0.853,-0.487,4.85,-10.25,1.04
1638188.948214,0.241,-0.854,-0.481,0.03,-0.58,0.85
1638188.994926,0.24,-0.845,-0.469,-0.55,-0.67,-0.18
1638189.044591,0.238,-0.837,-0.483,-1.98,-7.45,-4.39
1638189.094481,0.231,-0.843,-0.469,-4.3,-18.46,-6.04
1638189.134570,0.249,-0.831,-0.501,-13.61,-24.05,-3.08
1638189.184619,0.263,-0.791,-0.522,-3.45,-0.67,0.79
1638189.234557,0.247,-0.951,-0.49,3.51,-4.06,5.98
1638189.284749,0.195,-0.83,-0.502,25.06,-23.16,-1.37
1638189.334982,0.198,-0.835,-0.524,-0.52,2.81,-8.58
1638189.388054,0.23,-0.809,-0.507,11.51,-6.87,-4.27
1638189.432949,0.231,-0.815,-0.554,1.01,1.4,1.98
1638189.478007,0.228,-0.833,-0.557,-22.28,31.89,0.37
1638189.523660,0.258,-0.889,-0.551,21.12,-18.04,0.85
1638189.563821,0.199,-0.84,-0.518,11.2,-24.78,-6.84
1638189.608146,0.291,-0.81,-0.489,-4.61,13.4,-3.91
1638189.654070,0.161,-0.865,-0.3,-3.08,2.44,9.49
1638189.694188,0.204,-0.812,-0.506,24.26,-23.93,-0.98
1638189.734539,0.23,-0.855,-0.488,17.52,-19.53,18.19
1638189.784231,0.224,-0.829,-0.474,5.49,23.38,10.53
1638189.824483,0.179,-0.84,-0.466,-13.58,36.93,18.34
1638189.867979,0.23,-0.904,-0.446,-23.26,32.9,16.94
1638189.917698,0.175,-0.866,-0.486,11.38,-7.66,-1.62
1638189.957893,0.175,-0.865,-0.491,6.84,-7.23,-1.65
1638190.006427,0.21,-0.866,-0.466,-3.97,6.65,-1.46
1638190.056414,0.183,-0.879,-0.431,-3.11,11.11,1.1
1638190.104161,0.202,-0.836,-0.492,-10.13,8.21,-3.36
1638190.144421,0.219,-0.845,-0.473,-21.45,28.9,-4.85
1638190.184546,0.229,-0.825,-0.449,-18.22,26.12,-5.52
1638190.234673,0.236,-0.827,-0.492,-3.3,1.19,-3.75
1638190.284706,0.219,-0.845,-0.511,-14.47,16.24,-8.67
1638190.325139,0.231,-0.814,-0.455,-15.26,10.83,-10.62
1638190.374514,0.262,-0.735,-0.504,-2.84,0.79,-2.44
1638190.424356,0.257,-0.803,-0.48,-6.29,4.36,1.56
1638190.474297,0.313,-0.807,-0.507,3.91,5.62,9.46
1638190.524582,0.24,-0.738,-0.523,-2.81,21.03,15.5
1638190.564625,0.239,-0.838,-0.46,3.11,-5.01,33.48
1638190.614972,0.226,-0.856,-0.475,25.45,-13.89,-5.68
1638190.667931,0.207,-0.892,-0.553,1.95,-21.39,1.31
1638190.708006,0.231,-0.832,-0.49,-22.1,-11.51,-19.41
1638190.748308,0.297,-0.792,-0.54,-17.64,-4.49,-12.05
1638190.794611,0.256,-0.784,-0.496,-18.89,25.18,-2.81
1638190.844031,0.253,-0.904,-0.424,11.47,-7.17,3.39
1638190.894489,0.211,-0.747,-0.625,36.04,-61.01,2.5
1638190.934657,0.241,-0.838,-0.565,11.51,-32.5,1.92
1638190.984727,0.235,-0.788,-0.465,-7.02,0.4,1.59
1638191.034442,0.208,-0.809,-0.482,1.22,-3.69,0.24
1638191.084219,0.2,-0.812,-0.504,7.26,-0.76,-0.85
1638191.134183,0.19,-0.855,-0.491,10.71,8.39,-1.56
1638191.174384,0.193,-0.854,-0.499,7.57,11.32,-2.84
1638191.223791,0.206,-0.837,-0.509,-3.51,2.17,-2.29
1638191.267945,0.227,-0.83,-0.541,-6.65,1.68,-4.76
1638191.315055,0.219,-0.815,-0.514,-1.95,3.17,-1.95
1638191.364708,0.228,-0.813,-0.496,2.32,2.17,-1.95
1638191.413925,0.225,-0.835,-0.476,-2.26,2.23,-2.32
1638191.464130,0.233,-0.825,-0.499,0.58,2.29,-2.99
1638191.513553,0.241,-0.811,-0.515,1.53,6.5,-1.04
1638191.558340,0.245,-0.82,-0.493,-3.23,0.58,1.01
1638191.605067,0.247,-0.828,-0.49,-1.43,1.83,-2.08
1638191.654619,0.253,-0.804,-0.46,2.99,4.03,6.26
1638191.704261,0.233,-0.86,-0.478,2.69,-0.21,6.2
1638191.753982,0.227,-0.825,-0.493,0.7,2.2,1.71
1638191.803648,0.239,-0.805,-0.495,-0.95,6.38,7.02
1638191.848016,0.233,-0.854,-0.492,-8.7,6.44,1.16
1638191.898184,0.224,-0.829,-0.487,-12.94,0.12,-6.16
1638191.947550,0.249,-0.82,-0.519,-0.12,5.16,0.4
1638191.994486,0.236,-0.845,-0.51,4.73,12.15,2.23
1638192.044639,0.22,-0.827,-0.492,-4.12,10.47,-4.64
1638192.094404,0.254,-0.789,-0.511,1.16,5.04,-3.39
1638192.144376,0.235,-0.803,-0.497,5.49,2.9,1.86
1638192.193706,0.253,-0.793,-0.501,-1.16,5.58,1.59
1638192.243364,0.262,-0.85,-0.472,1.53,2.9,5.65
1638192.287801,0.263,-0.814,-0.497,3.72,6.81,7.14
1638192.337758,0.261,-0.806,-0.477,-0.37,8.79,14.28
1638192.383141,0.216,-0.854,-0.475,-5.07,1.68,16.02
1638192.424784,0.255,-0.886,-0.457,2.62,-9.58,0.12
1638192.467671,0.184,-0.789,-0.485,-2.17,-22.95,-13.79
1638192.508045,0.242,-0.83,-0.552,-9.22,-21.79,-10.44
1638192.553719,0.261,-0.765,-0.52,-12.97,7.02,-7.75
1638192.603606,0.187,-0.816,-0.493,-18.86,23.93,8.64
1638192.643690,0.239,-0.888,-0.48,7.26,-4.36,-6.84
1638192.684273,0.227,-0.791,-0.538,7.54,-10.8,-5.19
1638192.734119,0.252,-0.821,-0.553,12.7,-14.44,-0.31
1638192.783545,0.238,-0.8,-0.473,1.13,-2.04,1.04
1638192.828050,0.217,-0.808,-0.501,4.94,4.82,1.16
1638192.874721,0.232,-0.815,-0.501,2.9,1.16,0.76
1638192.924495,0.23,-0.831,-0.505,4.18,0.4,-0.15
1638192.974220,0.237,-0.822,-0.509,0.67,1.13,-2.04
1638193.023686,0.24,-0.815,-0.49,0.64,-0.09,-1.1
1638193.074008,0.253,-0.831,-0.483,0.92,1.56,0.55
1638193.117992,0.24,-0.837,-0.49,2.35,0.49,0.03
1638193.164857,0.238,-0.828,-0.501,2.47,2.44,-3.3
1638193.214726,0.238,-0.829,-0.493,-0.61,0.46,-2.08
1638193.264632,0.241,-0.817,-0.489,-3.51,2.04,-1.98
1638193.316996,0.248,-0.82,-0.501,-1.07,1.86,-0.06
1638193.364188,0.247,-0.819,-0.495,-0.06,0.52,-0.92
1638193.408340,0.248,-0.816,-0.487,-0.31,0.24,0.55
1638193.454773,0.238,-0.833,-0.508,3.72,1.62,0.79
1638193.504411,0.241,-0.817,-0.476,1.04,0.82,1.68
1638193.554446,0.247,-0.8,-0.491,5.43,-3.75,5.89
1638193.603829,0.236,-0.844,-0.501,3.63,-0.76,5.86
1638193.643946,0.24,-0.853,-0.481,0.95,1.19,4.09
1638193.684590,0.22,-0.842,-0.5,3.02,3.23,0.82
1638193.734337,0.238,-0.823,-0.486,1.13,2.04,0.31
1638193.784055,0.222,-0.84,-0.464,2.01,-0.79,1.31
1638193.824082,0.227,-0.846,-0.472,4.97,-3.91,0.15
1638193.867966,0.228,-0.849,-0.493,8.3,-5.04,-1.16
1638193.914856,0.222,-0.825,-0.477,3.78,-5.71,-1.89
1638193.964732,0.227,-0.842,-0.471,2.08,-0.52,1.31
1638194.014131,0.224,-0.855,-0.476,-0.27,0.52,-2.35
1638194.064016,0.227,-0.831,-0.467,-2.72,1.1,-1.53
1638194.108355,0.233,-0.834,-0.471,-1.77,3.45,0.15
1638194.154861,0.234,-0.835,-0.473,-4.85,2.08,0.09
1638194.204767,0.234,-0.845,-0.476,-3.11,1.74,0.31
1638194.254661,0.23,-0.838,-0.48,-0.89,0.92,1.34
1638194.303906,0.236,-0.856,-0.479,-0.7,1.8,0.31
1638194.343957,0.234,-0.852,-0.439,-2.78,1.01,0.09
1638194.384909,0.226,-0.881,-0.503,2.59,-0.82,-3.78
1638194.434579,0.242,-0.794,-0.445,-4.91,-0.64,-2.56
1638194.484260,0.225,-0.85,-0.479,3.97,-1.1,1.98
1638194.548859,0.232,-0.826,-0.481,-0.15,1.16,0.31
1638194.593737,0.235,-0.85,-0.486,0.52,0.43,2.47
1638194.633929,0.238,-0.853,-0.502,2.75,-0.52,1.28
1638194.674928,0.231,-0.835,-0.458,-4.46,0.79,-1.31
1638194.724719,0.225,-0.829,-0.461,0.0,0.03,0.37
1638194.774058,0.241,-0.829,-0.458,0.18,0.49,0.49
1638194.823670,0.233,-0.851,-0.48,0.21,-1.04,0.55
1638194.873691,0.227,-0.853,-0.475,-0.34,0.98,-1.59
1638194.917809,0.238,-0.836,-0.467,-1.56,0.18,-1.34
1638194.964744,0.239,-0.838,-0.47,-0.49,-0.12,-0.82
1638195.014655,0.233,-0.841,-0.476,-1.01,0.37,-0.49
1638195.059920,0.234,-0.841,-0.475,-0.55,0.37,-0.46
1638195.103288,0.235,-0.867,-0.452,1.34,-4.64,-4.61
1638195.143305,0.201,-0.823,-0.471,16.17,-25.54,-10.13
1638195.184032,0.221,-0.851,-0.486,10.01,-26.22,-1.07
1638195.228470,0.246,-0.819,-0.491,-12.42,-16.51,-4.82
1638195.274666,0.24,-0.787,-0.532,-26.64,27.07,-3.33
1638195.324326,0.264,-0.942,-0.427,18.46,-13.34,-2.01
1638195.374733,0.229,-0.883,-0.485,26.18,-27.77,3.54
1638195.424647,0.231,-0.864,-0.489,-5.22,10.9,-1.37
1638195.464761,0.171,-0.874,-0.355,-35.16,27.1,-4.24
1638195.515355,0.21,-0.827,-0.488,11.6,-11.54,-8.09
1638195.568288,0.225,-0.884,-0.49,3.75,-10.59,1.68
1638195.617952,0.214,-0.842,-0.456,1.68,0.98,1.98
1638195.671582,0.21,-0.838,-0.469,2.17,6.74,7.26
1638195.714880,0.218,-0.859,-0.457,-4.03,11.17,5.04
1638195.764616,0.21,-0.849,-0.46,1.4,3.05,0.76
1638195.814570,0.225,-0.855,-0.453,-1.95,8.45,4.85
1638195.854750,0.23,-0.859,-0.468,-6.16,8.64,3.11
1638195.894858,0.204,-0.853,-0.449,-5.13,9.74,2.56
1638195.945043,0.24,-0.909,-0.501,7.78,0.34,-1.56
1638195.994699,0.223,-0.861,-0.462,3.54,-0.24,2.87
1638196.044781,0.236,-0.853,-0.445,1.71,17.73,10.04
1638196.098061,0.214,-0.839,-0.47,-6.01,35.4,14.37
1638196.138260,0.215,-0.845,-0.48,-22.58,45.75,14.31
1638196.184188,0.199,-0.873,-0.443,14.89,-0.46,24.99
1638196.224515,0.24,-0.867,-0.48,29.91,-22.22,-7.11
1638196.274873,0.124,-0.903,-0.371,-3.78,-21.15,-4.58
1638196.328149,0.296,-0.867,-0.473,-10.62,-17.85,-5.46
1638196.374626,0.224,-0.857,-0.471,-15.53,2.96,-5.62
1638196.418391,0.205,-0.868,-0.469,-30.49,28.41,-7.17
1638196.464230,0.235,-0.884,-0.482,8.36,-7.84,-6.04
1638196.508067,0.192,-0.83,-0.501,4.82,-13.52,-8.3
1638196.553936,0.225,-0.821,-0.512,13.21,-14.19,0.55
1638196.598035,0.228,-0.869,-0.458,3.51,-7.54,0.55
1638196.644797,0.211,-0.854,-0.455,-3.11,0.09,1.28
1638196.694717,0.205,-0.86,-0.457,-1.43,-2.93,-1.22
1638196.744523,0.185,-0.882,-0.433,0.31,-4.21,-0.06
1638196.784561,0.209,-0.878,-0.488,-0.67,0.27,-1.89
1638196.828185,0.194,-0.819,-0.47,1.5,0.31,-0.43
1638196.874942,0.176,-0.862,-0.463,4.09,0.15,-2.26
1638196.924515,0.203,-0.839,-0.491,0.52,2.38,1.16
1638196.973965,0.196,-0.866,-0.476,2.04,0.34,2.41
1638197.023762,0.204,-0.86,-0.478,-0.92,2.59,-0.79
1638197.073721,0.211,-0.849,-0.468,-0.89,-0.18,-1.07
1638197.117823,0.201,-0.862,-0.467,-0.92,0.61,-2.08
1638197.164979,0.193,-0.85,-0.427,-0.64,0.03,-1.28
1638197.214874,0.196,-0.857,-0.458,-1.74,4.09,-3.23
1638197.264443,0.214,-0.849,-0.468,-0.76,0.27,-2.11
1638197.313805,0.218,-0.842,-0.459,-0.55,1.95,-0.37
1638197.358703,0.21,-0.845,-0.456,-1.1,-0.21,0.85
1638197.408201,0.204,-0.849,-0.469,-0.73,0.64,-0.52
1638197.454822,0.206,-0.851,-0.47,0.85,1.34,-0.98
1638197.504416,0.208,-0.844,-0.463,0.43,1.53,-0.46
1638197.554207,0.209,-0.846,-0.473,0.15,0.95,0.4
1638197.603858,0.21,-0.855,-0.476,0.67,2.53,-0.31
1638197.648377,0.211,-0.851,-0.46,1.5,0.24,0.73
1638197.698163,0.215,-0.852,-0.46,-0.98,-0.24,0.37
1638197.744894,0.211,-0.859,-0.473,0.21,0.21,1.01
1638197.794696,0.214,-0.857,-0.463,0.49,1.19,-0.18
1638197.844237,0.211,-0.85,-0.463,0.18,0.09,0.12
1638197.893747,0.217,-0.86,-0.466,-0.31,-0.09,0.89
1638197.938277,0.217,-0.856,-0.458,-0.4,0.46,0.18
1638197.985014,0.21,-0.853,-0.452,-0.98,0.82,0.24
1638198.034767,0.206,-0.859,-0.454,-1.22,0.67,-0.89
1638198.076732,0.21,-0.855,-0.462,-1.37,1.16,-1.04
1638198.123904,0.214,-0.846,-0.469,-1.5,1.19,-0.27
1638198.168249,0.218,-0.855,-0.466,1.16,1.31,0.52
1638198.215204,0.208,-0.849,-0.464,1.16,3.02,-0.09
1638198.264894,0.216,-0.855,-0.455,1.59,0.43,0.06
1638198.314422,0.207,-0.849,-0.459,0.31,-0.7,-2.08
1638198.364040,0.219,-0.855,-0.453,0.52,-4.09,-5.98
1638198.404168,0.208,-0.863,-0.466,3.33,-11.66,-6.96
1638198.448347,0.235,-0.845,-0.449,-1.46,-1.1,0.09
1638198.495027,0.223,-0.845,-0.474,-3.11,9.22,1.31
1638198.545153,0.171,-0.878,-0.437,-8.03,10.68,4.64
1638198.594742,0.228,-0.833,-0.443,4.49,2.78,0.31
1638198.645159,0.225,-0.857,-0.503,24.11,-17.27,8.0
1638198.694923,0.214,-0.847,-0.447,-1.5,9.86,3.51
1638198.748198,0.203,-0.823,-0.436,-15.69,37.93,5.77
1638198.794340,0.276,-0.911,-0.496,11.69,-14.16,2.87
1638198.838260,0.172,-0.829,-0.448,3.81,-5.34,-13.06
1638198.884087,0.237,-0.875,-0.495,5.4,-13.95,0.03
1638198.925257,0.21,-0.843,-0.41,-2.69,-11.54,-5.92
1638198.975122,0.207,-0.851,-0.468,-3.2,-4.46,-5.1
1638199.024792,0.204,-0.841,-0.428,-0.89,-4.76,-1.28
1638199.074501,0.224,-0.876,-0.452,-4.0,6.29,1.68
1638199.124721,0.246,-0.96,-0.419,-0.85,1.65,10.04
1638199.174550,0.161,-0.834,-0.46,5.01,-9.95,-9.0
1638199.224500,0.221,-0.846,-0.459,0.31,-3.45,-4.09
1638199.274181,0.205,-0.81,-0.421,-8.42,2.38,-1.07
1638199.323937,0.212,-0.841,-0.449,-1.65,2.93,0.82
1638199.368284,0.207,-0.85,-0.44,-0.76,3.3,4.43
1638199.415160,0.216,-0.868,-0.465,-0.37,3.69,1.77
1638199.464735,0.221,-0.869,-0.462,1.37,4.91,1.89
1638199.514179,0.216,-0.862,-0.451,-0.24,5.74,1.04
1638199.564114,0.214,-0.855,-0.441,-1.95,6.38,2.32
1638199.613822,0.213,-0.843,-0.455,-1.8,10.44,6.16
1638199.664053,0.222,-0.862,-0.463,0.09,16.6,12.7
1638199.714886,0.202,-0.88,-0.438,0.7,12.21,14.01
1638199.768136,0.226,-0.829,-0.469,-3.23,12.21,18.49
1638199.808189,0.193,-0.865,-0.439,0.49,20.08,16.05
1638199.853603,0.192,-0.896,-0.436,0.31,15.11,10.59
1638199.898241,0.195,-0.871,-0.454,-6.65,19.04,3.17
1638199.944040,0.189,-0.903,-0.401,-0.76,3.2,1.16
1638199.987831,0.186,-0.873,-0.432,10.62,-7.39,-19.29
1638200.028386,0.175,-0.872,-0.407,8.24,-27.74,-5.28
1638200.078506,0.256,-0.826,-0.489,0.7,-7.05,-4.27
1638200.126967,0.189,-0.879,-0.421,0.76,-3.51,0.52
1638200.174865,0.203,-0.873,-0.446,-2.04,-0.24,-0.7
1638200.224607,0.205,-0.871,-0.448,-1.5,-2.84,0.15
1638200.274181,0.195,-0.862,-0.433,-1.4,-0.4,1.8
1638200.324041,0.199,-0.862,-0.45,-0.61,-1.92,2.35
1638200.368363,0.215,-0.856,-0.473,-2.56,2.29,5.58
1638200.415228,0.236,-0.834,-0.532,-6.35,5.71,5.1
1638200.468089,0.401,-0.915,-0.76,8.79,53.1,18.04
1638200.508144,0.403,-0.981,-0.621,2.14,86.98,13.52
1638200.553918,0.213,-1.105,-0.483,-16.21,111.06,0.55
1638200.593946,0.151,-1.031,-0.332,-34.09,119.66,-24.51
1638200.634801,0.102,-0.752,-0.247,-81.42,86.03,-38.88
1638200.678132,0.089,-0.767,-0.157,-113.86,25.03,-24.45
1638200.718236,0.193,-0.69,-0.304,-31.8,-5.65,-7.23
1638200.758422,0.282,-0.684,-0.432,-46.6,-17.76,0.95
1638200.803968,0.442,-0.704,-0.632,-69.73,33.69,2.99
1638200.844262,0.376,-0.729,-0.536,-40.99,24.93,5.92
1638200.893952,0.415,-0.731,-0.598,-7.84,-1.1,13.31
1638200.933982,0.379,-0.685,-0.588,-26.95,2.66,6.78
1638200.974651,0.361,-0.705,-0.614,-32.87,9.67,6.53
1638201.024226,0.347,-0.682,-0.597,-28.53,6.9,4.67
1638201.064397,0.38,-0.621,-0.645,-22.16,-4.82,9.28
1638201.108471,0.372,-0.633,-0.661,-26.55,7.63,3.23
1638201.154246,0.334,-0.666,-0.627,-20.63,15.23,5.95
1638201.198419,0.377,-0.653,-0.667,1.25,-8.48,6.68
1638201.248289,0.332,-0.654,-0.663,15.08,-7.29,-5.16
1638201.294372,0.359,-0.674,-0.669,48.01,-34.82,12.42
1638201.345007,0.37,-0.592,-0.735,46.45,-16.79,14.56
1638201.385039,0.337,-0.586,-0.678,24.9,12.33,16.97
1638201.428266,0.287,-0.638,-0.545,32.41,12.67,19.84
1638201.474521,0.21,-0.71,-0.405,66.81,-24.84,31.83
1638201.514751,0.142,-0.848,-0.346,89.36,-68.06,27.86
1638201.567970,0.152,-0.921,-0.344,78.68,-97.29,15.66
1638201.608229,0.179,-0.944,-0.369,73.79,-99.49,7.45
1638201.654114,0.165,-1.033,-0.405,79.5,-96.41,-4.49
1638201.694559,0.134,-1.048,-0.435,68.48,-84.32,-29.73
1638201.745148,0.144,-0.953,-0.408,46.45,-58.81,-36.84
1638201.792459,0.193,-0.922,-0.374,40.25,-31.77,-7.45
1638201.834188,0.136,-0.885,-0.204,56.89,-32.93,-13.43
1638201.874240,0.11,-0.903,-0.175,74.47,-58.6,-8.27
1638201.914271,0.124,-0.946,-0.115,88.41,-73.03,-9.06
1638201.954614,0.109,-0.86,-0.062,100.16,-80.69,-19.87
1638201.994893,0.131,-0.902,-0.098,68.24,-83.93,8.24
1638202.035109,0.062,-1.17,-0.055,119.24,-99.25,8.48
1638202.078384,0.116,-1.115,-0.045,73.73,-32.99,-14.04
1638202.124414,0.001,-1.024,0.121,74.71,-48.65,-38.67
1638202.164812,0.137,-1.037,0.097,59.69,-39.7,-17.09
1638202.204998,0.191,-1.047,0.206,67.38,-29.45,-20.17
1638202.248135,0.189,-0.992,0.199,84.87,-32.81,-27.92
1638202.288879,0.285,-1.003,0.192,53.32,-29.48,-16.11
1638202.334335,0.388,-1.009,0.198,44.4,-23.65,28.57
1638202.374728,0.376,-1.016,0.13,36.65,-17.91,24.81
1638202.415298,0.195,-1.075,0.317,-3.63,28.84,-4.09
1638202.468369,0.035,-0.981,0.495,-36.9,63.26,-31.04
1638202.514462,0.012,-0.78,0.472,-36.62,53.13,-51.33
1638202.554774,0.069,-0.755,0.46,-17.73,29.6,-38.61
1638202.608138,0.171,-0.784,0.315,31.86,-3.11,-39.06
1638202.648147,0.231,-0.808,0.294,24.11,10.56,-32.72
1638202.688271,0.281,-0.784,0.287,37.17,25.76,-24.63
1638202.734447,0.26,-0.737,0.416,63.75,34.52,-13.06
1638202.774633,0.252,-0.752,0.497,47.67,40.8,-2.69
1638202.814652,0.264,-0.846,0.531,28.29,32.04,8.82
1638202.868029,0.296,-0.904,0.474,-15.56,57.41,21.82
1638202.908266,0.276,-0.865,0.407,-72.91,88.9,15.47
1638202.954715,0.294,-0.798,0.376,-69.46,115.6,27.16
1638202.998157,0.162,-0.813,0.337,-80.08,134.8,8.58
1638203.038319,0.03,-0.83,0.426,-15.29,95.61,16.08
1638203.084471,0.003,-0.847,0.442,65.46,86.43,53.74
1638203.124973,-0.038,-0.879,0.557,48.95,84.99,30.79
1638203.165199,-0.129,-0.874,0.617,39.67,71.17,28.6
1638203.208377,-0.162,-0.978,0.626,18.31,59.05,34.85
1638203.248448,-0.196,-0.98,0.603,8.91,47.52,11.63
1638203.294236,-0.197,-0.923,0.535,0.67,38.24,8.42
1638203.338209,-0.202,-0.887,0.479,6.81,30.27,6.04
1638203.384166,-0.147,-0.85,0.443,10.38,27.47,9.86
1638203.424355,-0.156,-0.905,0.501,1.25,45.63,14.65
1638203.474304,-0.212,-0.946,0.601,-9.95,58.23,4.03
1638203.524621,-0.236,-0.944,0.67,-5.1,43.52,-2.84
1638203.574605,-0.21,-0.899,0.605,-1.71,20.63,-11.35
1638203.628249,-0.167,-0.828,0.53,-12.54,19.44,-11.44
1638203.674826,-0.157,-0.812,0.5,-16.82,17.61,0.03
1638203.724528,-0.153,-0.831,0.494,-13.49,16.17,10.77
1638203.764750,-0.162,-0.871,0.509,-11.51,14.92,24.11
1638203.804844,-0.247,-0.946,0.544,-7.75,22.03,35.25
1638203.844946,-0.382,-0.976,0.583,-4.33,25.85,31.89
1638203.897928,-0.479,-0.996,0.589,-8.58,14.01,14.44
1638203.944019,-0.462,-0.827,0.485,-36.38,-24.75,-24.45
1638203.984448,-0.427,-0.771,0.403,-36.41,-36.44,-18.49
1638204.024604,-0.419,-0.772,0.342,-31.34,-44.47,-18.77
1638204.064864,-0.399,-0.765,0.259,-32.72,-42.79,-19.41
1638204.105048,-0.392,-0.76,0.266,-24.9,-27.47,-17.94
1638204.145109,-0.398,-0.724,0.291,-0.27,-20.02,-6.44
1638204.198184,-0.363,-0.799,0.216,3.51,-30.34,10.68
1638204.244317,-0.327,-0.839,0.238,27.62,-6.59,23.99
1638204.284423,-0.35,-0.847,0.317,41.99,23.62,36.65
1638204.324726,-0.343,-0.888,0.36,25.12,12.36,31.19
1638204.375039,-0.289,-0.948,0.32,15.87,4.7,30.27
1638204.415199,-0.286,-0.996,0.334,9.8,20.45,23.19
1638204.455199,-0.361,-1.026,0.401,7.63,30.27,12.54
1638204.498177,-0.362,-1.007,0.473,48.43,9.74,17.79
1638204.543799,-0.27,-0.918,0.475,44.31,6.23,-0.95
1638204.584140,-0.297,-0.838,0.523,-5.89,39.92,-28.14
1638204.624385,-0.349,-0.794,0.577,-25.67,39.89,-34.91
1638204.675064,-0.404,-0.783,0.54,-20.6,13.25,-20.48
1638204.715190,-0.425,-0.79,0.492,-10.83,-4.3,-15.32
1638204.768360,-0.441,-0.783,0.418,-8.85,-12.88,-11.05
1638204.808398,-0.424,-0.773,0.376,-9.46,-14.13,-10.16
1638204.853504,-0.369,-0.764,0.32,-13.46,-8.97,-2.87
1638204.898041,-0.339,-0.791,0.298,-27.04,1.22,-0.15
1638204.948600,-0.322,-0.816,0.273,-55.06,24.41,-7.35
1638204.994297,-0.348,-0.861,0.243,-96.26,44.71,-12.39
1638205.034898,-0.393,-0.969,0.288,-109.07,45.87,-2.44
1638205.075057,-0.456,-1.051,0.283,-62.78,11.26,7.84
1638205.128299,-0.398,-0.971,0.132,-1.01,-39.16,-1.46
1638205.178527,-0.361,-0.983,0.103,11.99,-32.01,18.04
1638205.224675,-0.344,-1.02,0.144,18.16,-11.75,9.06
1638205.274693,-0.304,-0.982,0.187,1.07,-8.12,-10.38
1638205.324517,-0.291,-1.072,0.244,-8.0,8.15,-9.16
1638205.364670,-0.305,-1.111,0.286,-26.52,9.34,-31.07
1638205.404718,-0.272,-1.058,0.251,-32.26,-7.63,-45.72
1638205.445009,-0.212,-1.002,0.228,-32.29,-17.43,-48.68
1638205.487869,-0.195,-0.997,0.226,-26.15,-19.26,-43.46
1638205.528159,-0.207,-0.984,0.225,-29.48,-19.14,-53.44
1638205.574593,-0.183,-0.875,0.198,-56.09,-12.02,-64.7
1638205.614719,-0.135,-0.817,0.13,-75.23,-10.41,-58.57
1638205.655114,-0.072,-0.759,-0.041,-118.96,-22.1,-59.11
1638205.698327,0.051,-0.59,-0.196,-191.23,-38.36,-49.59
1638205.745063,0.117,-0.496,-0.208,-192.36,-69.22,-0.55
1638205.788072,-0.167,-0.582,-0.288,-118.93,-109.96,50.17
1638205.834787,-0.478,-0.957,-0.564,-74.74,-129.52,88.23
1638205.878219,-0.234,-1.323,-1.148,-61.53,-61.74,29.15
1638205.923911,-0.471,-0.807,-0.992,-52.92,102.79,-39.09
1638205.964564,-0.311,-0.82,-0.722,-37.26,28.02,-1.68
1638206.005325,-0.168,-0.82,-0.73,53.44,-72.24,-4.39
1638206.055096,-0.109,-0.834,-0.749,83.44,-39.86,-17.61
1638206.097986,-0.056,-0.7,-0.669,45.5,18.43,-19.2
1638206.138115,0.032,-0.772,-0.52,8.33,93.26,12.54
1638206.178540,0.113,-0.834,-0.417,-3.54,183.81,30.67
1638206.224936,-0.03,-0.853,-0.029,-14.13,184.15,11.02
1638206.264973,0.04,-0.794,-0.047,-58.41,78.98,-15.14
1638206.308291,0.313,-1.023,-0.502,-213.84,-5.07,-56.55
1638206.354901,0.552,-0.783,-1.084,-140.2,-17.4,-147.28
1638206.395246,0.384,-0.64,-1.401,-75.5,35.83,-27.71
1638206.438051,0.041,-0.854,-1.085,-79.71,99.61,14.4
1638206.484183,-0.124,-0.985,-0.625,-27.01,56.61,2.62
1638206.524551,-0.082,-0.711,-0.52,15.38,2.17,-53.68
1638206.574675,-0.01,-0.433,-0.379,7.63,-18.56,-77.52
1638206.615076,0.009,-0.23,-0.382,-12.05,-12.7,-86.98
1638206.668413,0.045,-0.036,-0.457,-87.8,-29.36,-89.21
1638206.715286,-0.076,0.168,-0.58,-110.14,-102.54,-37.97
1638206.758511,-0.147,0.233,-0.699,-108.19,-211.16,19.53
1638206.804756,0.029,-0.368,-2.033,-28.5,196.94,7.17
1638206.848033,-0.061,-0.005,-0.649,-116.61,-74.89,-29.08
1638206.888474,0.176,0.01,-0.935,62.2,-45.41,31.13
1638206.934286,-0.007,-0.197,-0.955,111.36,-9.77,-5.46
1638206.974499,0.009,-0.334,-1.034,55.51,-13.7,15.78
1638207.014963,0.021,-0.348,-0.962,-5.89,-1.71,8.97
1638207.064479,0.075,-0.273,-0.956,-3.23,19.26,7.45
1638207.114380,0.096,-0.277,-0.909,12.3,15.17,1.98
1638207.154403,0.162,-0.293,-0.943,16.72,13.37,2.17
1638207.204629,0.181,-0.355,-0.954,-3.23,11.63,-4.06
1638207.254367,0.146,-0.289,-0.898,5.52,7.14,-0.89
1638207.304351,0.116,-0.321,-0.931,0.34,-1.71,2.04
1638207.354192,0.089,-0.311,-0.942,-4.15,2.87,-0.34
1638207.398510,0.091,-0.292,-0.937,-4.76,4.97,-1.07
1638207.445145,0.107,-0.281,-0.941,4.12,1.43,0.82
1638207.494988,0.113,-0.312,-0.881,27.13,-2.9,0.49
1638207.548103,0.101,-0.327,-0.949,81.55,-18.86,1.25
1638207.588185,0.005,-0.396,-0.913,77.61,-22.74,5.52
1638207.628356,0.041,-0.47,-0.862,61.56,-4.18,2.38
1638207.678797,0.052,-0.495,-0.873,-24.9,22.58,-19.81
1638207.724886,0.074,-0.463,-0.905,-72.36,33.91,-14.83
1638207.778235,0.173,-0.374,-0.896,-72.6,22.64,-0.67
1638207.824331,0.218,-0.258,-0.918,-43.18,12.97,-8.18
1638207.874363,0.235,-0.249,-0.91,-26.64,9.13,-9.49
1638207.924416,0.217,-0.279,-0.936,0.18,-0.55,-0.27
1638207.974047,0.154,-0.289,-0.918,6.99,-1.86,3.05
1638208.018401,0.144,-0.288,-0.929,-2.29,4.12,-0.31
1638208.068254,0.17,-0.291,-0.935,-1.1,4.79,-0.61
1638208.115040,0.17,-0.269,-0.925,0.76,5.19,-0.55
1638208.164740,0.172,-0.281,-0.928,3.97,-1.62,-0.61
1638208.214438,0.172,-0.288,-0.925,3.11,-1.07,-0.64
1638208.264056,0.18,-0.278,-0.93,-1.5,0.31,-1.1
1638208.308673,0.173,-0.275,-0.934,-1.65,-0.31,0.4
1638208.358429,0.163,-0.283,-0.933,0.4,-0.09,0.89
1638208.404866,0.164,-0.295,-0.931,-0.79,0.64,0.24
1638208.454572,0.175,-0.284,-0.927,-2.99,2.08,-0.37
1638208.504716,0.173,-0.28,-0.929,-1.59,1.04,-0.09
1638208.553799,0.174,-0.278,-0.926,-0.73,0.09,-0.18
1638208.600249,0.173,-0.28,-0.934,-0.12,0.27,-0.18
1638208.645238,0.172,-0.286,-0.934,-0.76,0.37,-0.34
1638208.695063,0.172,-0.278,-0.936,-2.81,1.22,-0.34
1638208.744655,0.172,-0.272,-0.931,-0.46,1.16,0.06
1638208.794354,0.17,-0.276,-0.929,-0.18,0.21,0.24
1638208.844002,0.173,-0.272,-0.932,-0.98,0.4,-0.06
1638208.888348,0.171,-0.282,-0.932,-0.24,1.07,0.0
1638208.935092,0.177,-0.274,-0.932,-1.04,0.79,-0.31
1638208.984860,0.181,-0.276,-0.929,0.76,0.52,-0.09
1638209.034546,0.169,-0.287,-0.93,0.37,-0.49,-0.7
1638209.084114,0.174,-0.275,-0.935,-1.37,0.21,0.0
1638209.124137,0.178,-0.27,-0.933,-1.22,1.22,-0.21
1638209.165159,0.171,-0.274,-0.925,0.34,-0.03,-0.43
1638209.215020,0.172,-0.276,-0.934,-0.64,0.64,0.06
1638209.264428,0.176,-0.274,-0.928,0.03,1.62,0.37
1638209.314241,0.177,-0.275,-0.928,-0.06,0.64,0.21
1638209.364273,0.17,-0.274,-0.938,-2.11,1.34,0.55
1638209.408454,0.174,-0.275,-0.931,-2.38,1.59,0.49
1638209.455032,0.176,-0.275,-0.926,0.67,0.09,0.73
1638209.504817,0.179,-0.28,-0.933,-0.15,0.85,0.79
1638209.554268,0.184,-0.282,-0.934,-0.4,0.61,0.18
1638209.594319,0.179,-0.278,-0.939,-0.43,-0.58,-0.12
1638209.635241,0.163,-0.283,-0.929,-1.22,-1.07,-1.25
1638209.684872,0.167,-0.278,-0.927,1.16,-1.62,-1.56
1638209.734569,0.183,-0.274,-0.931,-0.37,1.83,-1.19
1638209.784277,0.185,-0.275,-0.921,1.01,1.25,-0.49
1638209.824302,0.18,-0.265,-0.929,-0.43,1.46,0.43
1638209.865214,0.175,-0.26,-0.943,-3.23,1.95,1.25
1638209.915009,0.176,-0.255,-0.937,-1.19,1.07,1.83
1638209.964640,0.179,-0.271,-0.929,0.43,-0.52,1.1
1638210.006536,0.182,-0.284,-0.932,0.76,-0.73,0.64
1638210.048394,0.181,-0.292,-0.929,0.55,0.09,0.27
1638210.095043,0.175,-0.294,-0.924,0.15,0.27,-0.24
1638210.144756,0.174,-0.285,-0.93,0.06,0.82,-0.73
1638210.194187,0.182,-0.272,-0.938,-1.04,1.28,-0.76
1638210.244022,0.172,-0.264,-0.937,0.85,-0.89,-0.34
1638210.288526,0.171,-0.279,-0.931,3.72,-0.61,-0.85
1638210.338176,0.182,-0.287,-0.957,5.46,-5.52,3.23
1638210.384985,0.158,-0.274,-0.936,0.92,2.53,-0.27
1638210.434629,0.183,-0.283,-0.941,-0.55,0.21,-0.06
1638210.475296,0.183,-0.269,-0.924,0.06,-0.73,1.92
1638210.518450,0.169,-0.288,-0.919,-0.37,1.13,1.92
1638210.565265,0.181,-0.3,-0.931,1.01,2.59,1.16
1638210.615071,0.181,-0.285,-0.929,0.64,2.2,3.14
1638210.664668,0.209,-0.29,-0.932,-3.48,1.1,2.17
1638210.714539,0.228,-0.299,-0.927,-0.67,1.95,0.82
1638210.763911,0.19,-0.291,-0.923,2.5,-0.46,0.34
1638210.808514,0.185,-0.298,-0.92,2.87,0.79,-0.09
1638210.855150,0.202,-0.299,-0.923,0.82,2.96,-0.67
1638210.904676,0.199,-0.295,-0.925,0.89,1.89,0.76
1638210.954324,0.182,-0.288,-0.927,1.4,-0.31,0.79
1638211.004714,0.179,-0.293,-0.922,-0.4,1.46,0.0
1638211.053912,0.186,-0.295,-0.926,1.59,1.07,0.21
1638211.098396,0.19,-0.3,-0.922,2.5,0.64,0.27
1638211.145166,0.19,-0.294,-0.925,-1.07,0.76,-0.27
1638211.194914,0.183,-0.291,-0.922,-0.09,0.4,0.18
1638211.244628,0.19,-0.297,-0.924,1.13,0.49,0.27
1638211.294271,0.183,-0.301,-0.919,1.65,0.64,0.55
1638211.343626,0.182,-0.304,-0.929,1.43,1.62,0.21
1638211.388298,0.206,-0.308,-0.954,8.33,0.31,0.0
1638211.438557,0.262,-0.266,-0.928,79.01,-31.53,10.86
1638211.485313,0.295,-0.404,-1.232,284.59,-147.92,29.11
1638211.534596,0.034,-1.222,-1.467,436.6,-183.9,68.73
1638211.578659,-0.016,-1.447,-0.948,507.31,-216.25,107.03
1638211.628479,-0.163,-1.241,0.052,337.17,-111.94,-89.63
1638211.677946,-0.096,-0.657,0.37,271.71,-52.52,-136.69
1638211.724766,-0.073,-0.537,0.565,52.61,3.81,-125.95
1638211.765184,-0.05,-0.515,0.525,19.53,-19.75,-120.98
1638211.808416,0.047,-0.455,0.348,71.66,-48.25,-85.36
1638211.848602,0.116,-0.417,0.263,69.86,-32.38,-58.35
1638211.894564,0.17,-0.586,0.378,49.29,10.68,-13.46
1638211.944965,0.096,-0.755,0.505,20.51,-17.67,7.02
1638211.985236,0.203,-0.841,0.428,12.09,-25.36,15.32
1638212.038078,0.189,-0.81,0.503,13.86,36.29,-4.24
1638212.078521,0.107,-0.791,0.608,16.42,72.54,-12.33
1638212.124559,0.05,-0.707,0.657,5.55,70.62,-3.66
1638212.174354,-0.001,-0.745,0.661,-26.86,51.85,-8.79
1638212.214555,0.048,-0.797,0.646,-20.75,31.98,-1.86
1638212.264639,0.091,-0.82,0.648,10.28,14.47,-4.03
1638212.315020,0.156,-0.774,0.589,5.62,5.98,-0.95
1638212.364708,0.177,-0.736,0.692,6.29,16.82,-0.06
1638212.414870,0.203,-0.736,0.665,2.41,6.62,7.35
1638212.464736,0.222,-0.79,0.695,-12.05,4.49,10.99
1638212.514812,0.228,-0.782,0.7,16.66,-1.95,9.06
1638212.564980,0.253,-0.824,0.759,13.15,-3.63,11.84
1638212.618056,0.232,-0.813,0.805,55.57,8.39,11.29
1638212.668598,0.121,-0.795,0.808,36.04,30.52,-3.42
1638212.714414,0.094,-0.762,0.777,53.04,20.42,-8.51
1638212.754550,0.061,-0.647,0.723,58.69,10.99,-17.82
1638212.805295,0.034,-0.453,0.736,108.04,10.28,-27.19
1638212.848210,0.052,-0.287,0.777,109.96,-1.5,-36.04
1638212.894381,-0.018,-0.185,0.857,111.18,-0.89,-2.04
1638212.934476,0.06,-0.226,0.93,82.58,-17.06,20.45
1638212.974787,0.07,-0.291,0.924,61.92,-24.08,41.44
1638213.028432,0.111,-0.349,1.029,45.41,0.0,45.63
1638213.074972,-0.071,-0.548,1.076,17.15,10.19,55.39
1638213.124457,-0.167,-0.576,1.061,10.1,-7.02,24.38
1638213.164599,-0.092,-0.497,0.939,5.95,-23.99,11.81
1638213.214894,-0.02,-0.367,0.846,-10.74,-15.44,-0.18
1638213.265157,0.007,-0.289,0.838,-25.24,-5.07,4.24
1638213.315164,0.015,-0.316,0.913,-26.58,7.14,5.55
1638213.365344,0.031,-0.291,0.943,-11.63,1.68,1.68
1638213.415096,-0.002,-0.19,0.967,3.88,-0.64,6.68
1638213.464796,-0.044,0.002,0.944,-0.7,-4.15,9.46
1638213.515044,-0.126,0.194,0.798,-17.61,-7.45,37.39
1638213.568586,-0.034,0.197,0.685,-27.28,-9.31,85.24
1638213.615020,-0.019,-0.12,0.621,-33.69,22.64,146.58
1638213.658157,-0.005,-0.337,0.61,-20.2,34.61,157.02
1638213.704633,-0.09,-0.418,0.593,2.87,67.11,150.09
1638213.745443,-0.333,-0.389,0.544,41.9,106.45,161.72
1638213.807813,-0.615,-0.6,0.672,16.82,146.89,156.87
1638213.854841,-0.996,-0.652,0.795,-12.12,198.28,91.59
1638213.898430,-1.013,-0.54,0.823,24.51,148.44,45.35
1638213.945075,-0.925,-0.118,0.468,51.12,130.19,19.68
1638213.988092,-3.686,-1.823,4.0,-12.12,-150.61,-31.4
1638214.034857,-0.021,-0.303,0.248,53.99,-49.68,19.07
1638214.078305,-0.67,0.155,0.568,-97.54,198.1,-5.68
1638214.118579,-0.969,-0.168,0.835,-67.14,80.48,8.73
1638214.158642,-0.866,-0.355,0.63,-61.37,-38.39,10.44
1638214.204601,-0.708,-0.336,0.593,-9.95,-18.07,17.91
1638214.254928,-0.733,-0.185,0.586,8.91,-5.49,11.05
1638214.304939,-0.772,-0.298,0.675,-16.14,6.01,1.04
1638214.354788,-0.771,-0.285,0.641,3.81,7.08,-2.17
1638214.404832,-0.748,-0.237,0.585,17.67,-2.32,-7.78
1638214.454943,-0.696,-0.355,0.697,40.31,-3.11,2.84
1638214.497956,-0.665,-0.588,0.737,121.83,53.83,54.08
1638214.544680,-0.633,-0.247,0.74,183.39,180.61,84.23
1638214.588277,-1.309,-0.105,0.36,30.0,425.61,-36.65
1638214.635051,-1.566,-0.304,0.797,97.99,114.29,-100.74
1638214.678494,-1.44,0.169,0.289,184.82,-155.37,-2.2
1638214.725316,-1.057,-0.109,0.089,66.07,-177.56,25.24
1638214.768546,-1.051,-0.072,0.116,52.34,-188.45,-42.02
1638214.815166,-1.075,0.177,0.17,66.26,-148.9,-30.24
1638214.858508,-1.128,0.097,0.398,51.12,-168.98,-6.62
1638214.904284,-0.94,0.179,0.512,80.45,-196.75,0.49
1638214.944802,-0.784,0.128,0.712,3.48,-189.34,0.09
1638214.984806,-0.579,0.024,0.84,1.8,-196.75,-10.5
1638215.025348,-0.331,0.133,0.749,3.2,-198.0,-11.05
1638215.068175,-0.094,0.09,0.734,-33.63,-159.46,-4.52
1638215.108533,-0.027,0.017,0.684,-68.97,-113.32,4.09
1638215.154289,-0.031,-0.187,0.756,-54.45,-72.66,6.96
1638215.207375,-0.058,-0.21,0.742,-8.79,-49.99,-5.98
1638215.254742,-0.061,-0.211,0.816,-12.21,-19.23,-9.09
1638215.295347,0.025,-0.15,0.893,-20.39,-11.93,-18.34
1638215.348692,0.058,-0.225,1.112,-81.21,36.1,0.85
1638215.394619,-0.027,-0.501,1.276,-161.66,13.46,3.05
1638215.434755,-0.052,-0.696,1.184,-163.09,-11.14,-3.94
1638215.480941,-0.057,-0.708,1.02,-122.68,-17.15,-41.47
1638215.524144,-0.097,-0.497,0.882,-80.36,-12.63,-58.41
1638215.564663,-0.119,-0.411,0.797,-58.66,-7.72,-57.04
1638215.615201,-0.106,-0.322,0.699,-58.75,-10.19,-56.34
1638215.658127,-0.087,-0.347,0.691,-58.78,-22.43,-43.7
1638215.698556,0.009,-0.352,0.653,-33.81,-20.75,-36.01
1638215.744676,0.1,-0.375,0.702,-14.34,-43.86,-31.31
1638215.784731,0.259,-0.414,0.67,-4.61,-43.55,-12.94
1638215.824777,0.353,-0.488,0.723,-29.76,-31.4,0.58
1638215.875343,0.438,-0.637,0.762,-21.42,-43.09,-3.78
1638215.928789,0.376,-0.633,0.652,-21.94,-46.17,3.02
1638215.974701,0.318,-0.653,0.529,-33.48,-30.09,1.16
1638216.014808,-0.455,-0.431,0.443,-105.35,70.38,37.08
1638216.054938,0.199,-0.885,0.635,-93.2,23.77,6.41
1638216.095004,0.187,-0.829,0.55,-49.56,-14.53,-36.01
1638216.135152,0.273,-0.733,0.587,21.73,-9.55,-17.33
1638216.175257,0.284,-0.726,0.519,32.99,18.25,15.14
1638216.228552,0.268,-0.677,0.634,4.55,54.69,-12.05
1638216.274386,0.18,-0.654,0.708,-5.58,33.54,16.48
1638216.314591,0.167,-0.863,0.65,-2.69,-26.12,52.55
1638216.364412,0.235,-0.894,0.502,-1.8,-38.21,14.74
1638216.414528,0.177,-0.825,0.565,-5.71,23.9,-5.19
1638216.465181,0.199,-0.803,0.612,-20.17,22.37,-12.05
1638216.505245,0.222,-0.771,0.563,-27.92,-2.29,-12.79
1638216.558043,0.29,-0.769,0.488,-35.86,5.92,-7.45
1638216.608348,0.292,-0.807,0.44,-49.13,1.43,-4.36
1638216.658541,0.276,-0.764,0.339,-37.05,-0.4,4.73
1638216.704407,0.241,-0.945,0.277,-60.21,1.4,21.67
1638216.744448,0.151,-1.099,0.314,7.75,40.25,18.04
1638216.794546,0.026,-1.338,0.514,26.37,38.85,-5.19
1638216.835288,-0.005,-1.141,0.623,81.15,39.92,-84.08
1638216.878581,0.321,-0.925,0.75,75.41,66.23,-126.01
1638216.925486,0.31,-0.796,1.053,-5.1,153.2,-142.19
1638216.974811,0.32,-0.805,1.211,-35.92,97.66,-111.91
1638217.018009,0.433,-0.61,1.042,-11.14,35.58,-100.34
1638217.058754,0.417,-0.338,0.796,-31.13,24.81,-81.51
1638217.104592,0.361,-0.441,0.709,-77.79,29.6,12.91
1638217.144863,0.293,-0.619,0.671,-61.46,-0.09,57.71
1638217.198117,0.251,-0.92,0.503,-38.73,18.13,82.8
1638217.238401,0.167,-1.091,0.555,-22.92,45.14,44.22
1638217.284450,0.101,-1.101,0.522,34.88,29.15,6.5
1638217.324722,0.111,-1.013,0.485,26.34,8.03,-41.11
1638217.375181,0.188,-0.747,0.413,9.37,-11.96,-79.1
1638217.415214,0.233,-0.534,0.361,-2.38,-18.22,-87.19
1638217.468548,0.258,-0.397,0.331,-14.16,-24.57,-65.86
1638217.514761,0.296,-0.402,0.327,-12.91,-21.97,-26.03
1638217.554782,0.378,-0.522,0.322,-14.65,-11.72,-12.18
1638217.604739,0.47,-0.593,0.347,4.21,9.25,9.61
1638217.644916,0.503,-0.667,0.404,5.8,34.82,24.17
1638217.685023,0.518,-0.681,0.494,-23.5,37.48,12.6
1638217.725490,0.511,-0.72,0.602,-14.31,20.11,13.55
1638217.778672,0.475,-0.727,0.642,1.16,-0.85,10.01
1638217.828447,0.416,-0.708,0.682,-10.22,-8.27,5.98
1638217.878769,0.375,-0.716,0.641,-15.35,-14.16,3.45
1638217.924713,0.335,-0.717,0.538,-13.73,-31.13,-5.77
1638217.974851,0.35,-0.787,0.407,-17.85,-37.08,2.66
1638218.025474,0.372,-0.86,0.297,-26.73,-25.42,-3.63
1638218.078678,0.384,-0.89,0.229,-33.81,-1.22,-10.59
1638218.124586,0.475,-0.87,0.266,-3.75,9.52,-18.59
1638218.164716,0.384,-0.919,0.26,36.53,61.13,16.36
1638218.215276,0.151,-0.975,0.443,6.38,133.73,0.27
1638218.258525,0.138,-0.911,0.595,-20.54,92.04,-32.9
1638218.304188,0.255,-0.825,0.586,11.44,43.61,-15.69
1638218.354894,0.273,-0.83,0.606,4.94,52.46,-3.66
1638218.398556,0.183,-0.896,0.623,-13.12,53.62,9.98
1638218.445361,0.122,-0.992,0.572,-30.18,36.44,1.37
1638218.488108,0.116,-0.893,0.524,-28.17,27.04,-16.24
1638218.528770,0.065,-0.773,0.532,-19.81,40.31,-15.53
1638218.574478,-0.014,-0.827,0.462,-31.07,40.65,0.12
1638218.615598,-0.054,-0.863,0.4,-36.19,37.54,-8.21
1638218.664984,-0.072,-0.813,0.399,-11.35,66.01,-9.25
1638218.715230,-0.09,-0.826,0.315,-15.2,85.42,5.83
1638218.768602,0.003,-0.836,0.352,-19.78,112.19,0.58
1638218.814966,0.098,-0.866,0.393,-21.3,124.64,13.37
1638218.858245,0.116,-1.007,0.443,-22.28,139.65,31.89
1638218.898593,0.136,-1.164,0.55,-17.24,145.33,30.21
1638218.944837,0.105,-1.173,0.628,-3.33,118.47,1.5
1638218.985034,-0.039,-1.043,0.619,-2.44,104.28,-20.97
1638219.027818,-0.005,-0.869,0.621,-17.82,75.11,-62.87
1638219.068344,0.038,-0.694,0.595,-3.23,41.38,-62.2
1638219.108578,0.07,-0.662,0.609,15.93,50.6,-21.7
1638219.148622,0.041,-0.725,0.641,16.14,58.6,4.52
1638219.194379,0.019,-0.838,0.631,8.48,40.25,17.24
1638219.244847,0.085,-0.868,0.53,2.78,2.14,11.32
1638219.294987,0.148,-0.846,0.501,10.83,1.19,15.14
1638219.335212,0.129,-0.848,0.557,15.29,16.82,26.92
1638219.378450,0.041,-0.91,0.633,19.53,15.53,38.76
1638219.418558,-0.096,-1.008,0.706,28.69,14.22,46.57
1638219.464475,-0.277,-1.061,0.754,13.31,-9.34,17.58
1638219.506302,-0.414,-1.039,0.666,0.82,-28.81,7.14
1638219.554769,-0.333,-0.884,0.498,-14.71,-70.59,-43.52
1638219.595332,-0.229,-0.744,0.394,-20.87,-66.29,-52.25
1638219.638269,-0.188,-0.673,0.367,-25.45,-41.11,-44.31
1638219.678726,-0.163,-0.667,0.38,-21.58,-25.12,-24.45
1638219.724750,-0.155,-0.682,0.39,-3.51,-17.52,10.74
1638219.775074,-0.152,-0.767,0.402,11.57,-1.4,39.49
1638219.825298,-0.136,-0.816,0.428,4.7,9.89,36.74
1638219.878438,-0.152,-0.897,0.495,9.25,25.18,39.77
1638219.924411,-0.186,-0.958,0.55,23.04,23.26,40.99
1638219.964882,-0.222,-0.989,0.59,28.05,21.88,34.67
1638220.005936,-0.252,-0.985,0.612,21.67,20.57,14.95
1638220.058490,-0.278,-0.92,0.612,5.31,9.67,-12.85
1638220.108713,-0.247,-0.855,0.576,-3.97,-4.0,-24.23
1638220.158772,-0.237,-0.802,0.554,-0.24,-7.17,-21.39
1638220.204309,-0.225,-0.781,0.524,-0.21,-13.21,-13.92
1638220.254219,-0.2,-0.781,0.501,0.61,-10.19,-4.03
1638220.298788,-0.18,-0.774,0.5,-1.43,-3.69,1.07
1638220.348384,-0.165,-0.795,0.527,-5.46,-0.95,7.54
1638220.395273,-0.168,-0.84,0.544,-3.02,-3.51,10.83
1638220.445096,-0.2,-0.871,0.527,2.44,-5.28,9.4
1638220.494910,-0.227,-0.89,0.522,5.95,-0.61,3.85
1638220.537108,-0.215,-0.88,0.527,4.64,0.12,-2.04
1638220.583693,-0.174,-0.856,0.502,3.6,-1.37,-4.46
1638220.628292,-0.164,-0.846,0.491,4.55,4.3,-5.49
1638220.678182,-0.175,-0.853,0.518,5.4,14.47,-4.18
1638220.727989,-0.19,-0.863,0.548,2.44,16.14,-7.11
1638220.778430,-0.204,-0.86,0.576,5.25,15.96,-9.16
1638220.823640,-0.207,-0.878,0.685,-5.16,-1.31,-27.62
1638220.864295,-0.315,-0.849,0.844,-36.65,-88.41,-41.02
1638220.904622,-0.267,-0.847,1.039,-104.71,-316.02,-44.22
1638220.948353,-0.093,-0.776,0.756,-92.07,-488.45,-21.52
1638220.994869,0.265,-0.802,-0.046,4.58,-510.36,-9.52
1638221.037817,0.429,-0.836,-0.479,16.27,-288.89,61.68
1638221.078488,0.237,-1.026,-0.065,-104.95,-50.6,75.47
1638221.124806,-0.074,-0.986,0.228,-50.2,-22.31,46.57
1638221.164848,-0.061,-0.946,-0.049,-6.62,-81.24,37.97
1638221.207179,0.057,-0.964,-0.103,-14.13,-80.32,25.48
1638221.258391,0.139,-0.994,-0.112,-7.29,-43.55,15.84
1638221.298704,0.125,-0.931,-0.081,-5.19,-24.81,10.9
1638221.344078,0.16,-0.936,-0.066,-17.61,-13.98,12.45
1638221.384121,0.208,-0.939,-0.036,-5.62,-24.29,-1.62
1638221.424133,0.273,-0.891,-0.109,21.12,-25.73,-6.71
1638221.474475,0.336,-0.911,-0.097,11.6,14.28,-0.64
1638221.525090,0.311,-0.991,-0.022,15.35,47.76,3.97
1638221.565248,0.206,-1.015,0.072,11.35,43.28,-8.03
1638221.605671,0.167,-1.011,0.029,8.76,15.9,-3.08
1638221.654828,0.175,-1.022,-0.034,-2.81,5.28,-0.52
1638221.704696,0.195,-1.032,-0.097,-5.74,0.76,4.64
1638221.745652,0.224,-1.049,-0.075,-10.41,0.73,0.64
1638221.788665,0.239,-1.032,-0.088,-11.93,5.28,3.57
1638221.834358,0.259,-1.01,-0.016,-20.75,15.81,-0.76
1638221.883905,0.292,-0.985,-0.002,7.9,-0.76,-3.88
1638221.928677,0.28,-0.964,0.007,-0.03,9.52,0.31
1638221.978722,0.218,-0.959,0.008,-15.23,-1.98,10.44
1638222.024808,0.231,-1.043,-0.041,17.61,-0.43,25.18
1638222.065090,0.111,-1.034,0.057,7.69,42.36,14.65
1638222.114665,0.033,-0.926,0.169,6.9,19.62,-1.28
1638222.164876,0.077,-0.85,0.11,14.07,8.55,1.62
1638222.214814,0.045,-0.869,0.165,2.17,12.27,-15.17
1638222.264837,0.095,-0.963,0.226,0.55,31.92,-5.95
1638222.304936,0.064,-1.036,0.254,17.09,51.67,-0.85
1638222.344945,0.019,-0.966,0.211,25.12,39.4,3.69
1638222.385322,0.062,-0.967,0.086,34.39,18.68,20.11
1638222.428363,0.096,-1.008,0.063,14.5,7.84,31.71
1638222.478480,0.103,-1.056,0.113,13.0,-0.12,21.52
1638222.523784,0.107,-1.057,0.13,13.06,3.45,11.44
1638222.563804,0.098,-1.047,0.175,15.66,5.89,6.23
1638222.608458,0.104,-1.002,0.176,25.39,-1.22,-0.89
1638222.658859,0.11,-0.965,0.168,28.11,2.56,-2.5
1638222.703745,0.083,-0.98,0.22,19.29,1.07,2.56
1638222.748584,0.084,-0.955,0.201,20.72,-6.62,6.65
1638222.794560,0.083,-0.972,0.187,20.78,-21.64,10.32
1638222.845109,0.083,-0.995,0.206,14.92,-31.95,13.06
1638222.885187,0.066,-1.011,0.239,4.79,-36.07,19.23
1638222.938378,0.038,-1.05,0.324,-1.22,-25.91,39.34
1638222.978679,-0.089,-1.013,0.409,-26.43,34.55,57.53
1638223.024835,-0.298,-0.884,0.338,-94.52,97.93,54.6
1638223.068277,-0.316,-0.834,0.219,-132.57,88.87,27.56
1638223.108784,-0.256,-0.873,0.054,-170.38,39.31,-14.13
1638223.150502,-0.149,-0.943,0.042,-110.14,12.21,-25.57
1638223.194786,-0.057,-0.966,0.043,31.22,-9.77,-6.78
1638223.235023,-0.016,-1.05,0.036,45.99,-16.72,-10.59
1638223.275166,0.001,-1.053,0.047,-15.26,7.11,-14.62
1638223.315508,0.024,-1.091,0.029,-97.26,17.18,-27.44
1638223.358866,0.011,-1.128,0.033,-139.81,4.85,-57.07
1638223.405948,-0.053,-1.098,0.043,-89.97,-71.75,-64.67
1638223.447875,-0.055,-1.011,-0.15,-1.59,-148.2,-49.56
1638223.488375,0.051,-0.867,-0.479,1.13,-179.54,-47.67
1638223.535084,0.132,-0.852,-0.685,-70.01,-93.11,-54.23
1638223.578569,0.415,-0.862,-1.294,73.82,12.76,-35.92
1638223.624565,0.053,-0.892,-0.247,-62.9,59.02,-17.24
1638223.675013,0.006,-0.92,-0.168,28.5,-28.2,-1.28
1638223.728472,0.044,-0.895,-0.289,12.33,-22.16,-22.8
1638223.768541,0.071,-0.813,-0.219,-31.4,-23.99,-29.42
1638223.814825,0.084,-0.882,-0.308,-73.49,-59.14,-18.1
1638223.854961,0.073,-0.84,-0.603,-120.67,-71.2,-48.28
1638223.898264,0.122,-0.752,-0.923,-44.77,-38.94,10.62
1638223.938378,0.01,-0.839,-0.554,-13.49,-28.02,18.56
1638223.978501,0.061,-0.874,-0.605,25.91,-75.78,-7.48
1638224.018616,0.067,-0.87,-0.583,77.03,-33.17,1.89
1638224.064324,0.027,-0.875,-0.458,-9.0,-17.49,-11.08
1638224.108624,0.08,-0.83,-0.506,-8.94,2.84,5.37
1638224.158548,0.067,-0.824,-0.538,-19.41,14.5,2.78
1638224.204582,0.046,-0.831,-0.55,-16.79,14.62,-8.36
1638224.244610,0.042,-0.847,-0.583,-14.13,0.85,-19.62
1638224.294755,0.044,-0.839,-0.594,-18.89,-10.41,-41.47
1638224.334909,0.086,-0.821,-0.58,-9.37,-11.72,-24.02
1638224.385132,0.107,-0.78,-0.561,-3.57,-22.13,17.82
1638224.425358,0.107,-0.75,-0.542,-12.12,-29.63,8.06
1638224.465372,0.088,-0.757,-0.538,-13.15,-14.74,11.35
1638224.518184,0.043,-0.815,-0.575,-14.8,4.94,-3.08
1638224.568727,0.003,-0.882,-0.629,-21.0,13.43,-12.36
1638224.614898,0.078,-0.849,-0.637,-13.64,10.07,-25.91
1638224.655268,0.106,-0.744,-0.656,0.76,4.82,-18.19
1638224.704366,0.189,-0.705,-0.607,8.06,13.4,-8.39
1638224.754641,0.157,-0.682,-0.58,0.12,9.46,5.37
1638224.804238,0.106,-0.714,-0.565,-3.45,0.89,8.61
1638224.844300,0.052,-0.778,-0.546,4.64,-8.7,4.0
1638224.888669,0.046,-0.901,-0.634,7.2,-15.9,8.0
1638224.938561,0.063,-0.818,-0.635,13.58,-2.11,5.13
1638224.988601,0.095,-0.762,-0.6,3.63,5.83,-2.01
1638225.035258,0.11,-0.763,-0.611,-5.83,-1.83,-2.59
1638225.085164,0.102,-0.777,-0.611,-17.21,-5.71,-0.46
1638225.125291,0.073,-0.786,-0.605,-22.52,-10.62,-11.08
1638225.178554,0.065,-0.796,-0.606,-18.34,-7.42,-10.86
1638225.224608,0.052,-0.722,-0.633,-18.31,-11.23,0.64
1638225.274609,0.097,-0.675,-0.669,-12.09,-15.63,5.52
1638225.324987,0.087,-0.714,-0.676,-0.58,-5.89,15.59
1638225.374877,0.035,-0.786,-0.677,-3.91,7.45,6.04
1638225.424681,0.04,-0.751,-0.682,-8.42,-9.8,7.72
1638225.464871,0.066,-0.705,-0.669,-8.85,-6.56,10.96
1638225.508892,0.053,-0.704,-0.665,-3.2,0.0,22.13
1638225.553850,0.033,-0.73,-0.626,2.78,12.33,36.62
1638225.594348,-0.01,-0.717,-0.665,3.6,14.13,35.43
1638225.638581,-0.05,-0.743,-0.677,1.83,-0.73,32.14
1638225.684271,-0.071,-0.699,-0.72,22.77,-7.23,34.12
1638225.724538,-0.065,-0.703,-0.648,64.24,3.54,55.57
1638225.766240,-0.044,-0.789,-0.618,17.27,11.87,15.75
1638225.814814,-0.079,-0.798,-0.596,18.1,21.94,-18.1
1638225.865378,-0.023,-0.803,-0.604,7.97,-9.09,-7.05
1638225.914661,-0.024,-0.736,-0.575,-4.06,1.65,-2.81
1638225.965232,0.015,-0.764,-0.572,-33.54,8.36,-12.45
1638226.006113,-0.081,-0.894,-0.481,-9.25,1.07,7.93
1638226.056082,-0.044,-0.765,-0.58,41.41,-2.32,-1.37
1638226.104837,0.002,-0.761,-0.648,45.96,8.7,-2.81
1638226.145262,-0.014,-0.802,-0.464,42.6,12.76,5.31
1638226.198752,-0.021,-0.756,-0.393,66.23,-17.76,10.56
1638226.244251,0.011,-0.779,-0.392,50.11,4.61,4.82
1638226.288557,-0.075,-0.828,-0.383,50.66,-9.4,0.79
1638226.334339,-0.15,-0.947,-0.372,35.25,-33.2,17.18
1638226.374709,-0.162,-0.922,-0.35,40.31,-19.1,24.38
1638226.414737,-0.167,-0.896,-0.289,52.86,-6.56,37.35
1638226.465129,-0.194,-0.941,-0.236,55.79,-0.79,39.61
1638226.505133,-0.186,-1.006,-0.209,53.1,2.53,39.89
1638226.545342,-0.201,-1.022,-0.185,50.9,0.7,46.51
1638226.598752,-0.226,-1.055,-0.152,30.7,-3.14,37.75
1638226.644696,-0.253,-1.011,-0.129,30.37,-6.78,42.88
1638226.694751,-0.276,-1.025,-0.082,26.89,-5.16,45.05
1638226.734827,-0.293,-0.962,-0.085,21.03,11.44,39.37
1638226.775268,-0.355,-0.945,-0.034,33.42,25.67,44.89
1638226.815440,-0.438,-1.0,-0.045,2.66,21.64,31.16
1638226.868678,-0.443,-0.966,-0.066,1.89,10.25,17.49
1638226.914000,-0.419,-0.937,-0.046,10.1,6.59,8.91
1638226.958521,-0.25,-0.737,-0.118,11.72,8.67,30.4
1638226.998791,-0.447,-0.95,-0.091,47.52,41.41,23.19
1638227.044176,-0.527,-0.968,-0.092,5.52,-5.4,5.71
1638227.094223,-0.468,-0.949,0.035,-23.53,2.01,-5.01
1638227.134285,-0.475,-0.963,-0.103,-6.23,9.92,-17.52
1638227.178665,-0.459,-0.901,-0.065,3.66,11.44,-18.07
1638227.228630,-0.47,-0.865,-0.005,2.35,-1.1,-6.01
1638227.278395,-0.432,-0.919,-0.003,-11.35,-17.49,-3.14
1638227.328747,-0.397,-0.981,-0.053,-9.4,-3.23,-8.64
1638227.378697,-0.411,-0.954,-0.044,-1.59,-1.1,-16.75
1638227.424464,-0.395,-0.914,-0.082,-14.44,-8.97,-11.05
1638227.474261,-0.383,-0.893,-0.087,-7.63,0.15,-7.57
1638227.518533,-0.389,-0.91,-0.12,-1.53,5.89,-7.35
1638227.584608,-0.387,-0.955,-0.101,11.02,2.26,2.11
1638227.633991,-0.37,-0.957,-0.086,15.99,-4.24,-3.23
1638227.674887,-0.365,-0.905,-0.024,12.05,-7.84,-10.47
1638227.718595,-0.352,-0.92,-0.024,8.55,-2.5,-4.97
1638227.765505,-0.349,-0.94,-0.036,4.91,6.56,3.27
1638227.815301,-0.391,-0.914,-0.058,2.81,7.45,13.7
1638227.868364,-0.362,-0.908,-0.065,0.82,11.63,20.11
1638227.908545,-0.388,-0.977,-0.022,-16.14,13.52,5.43
1638227.948792,-0.412,-1.038,-0.048,-12.3,16.97,-9.52
1638227.994211,-0.408,-1.027,-0.062,-15.56,9.64,-14.92
1638228.034577,-0.376,-0.949,-0.083,-15.9,9.8,-21.45
1638228.074675,-0.348,-0.933,-0.109,-12.24,3.17,-17.03
1638228.114753,-0.385,-1.049,-0.095,-17.0,1.65,-15.5
1638228.165252,-0.289,-0.928,-0.083,-31.25,8.61,-25.48
1638228.218507,-0.35,-0.906,-0.031,-46.24,-12.7,-22.74
1638228.264617,-0.288,-0.906,-0.12,-67.66,0.34,-31.92
1638228.315287,-0.194,-0.869,-0.318,-34.73,-12.85,-20.54
1638228.355422,-0.302,-0.946,-0.244,-39.58,17.98,-20.87
1638228.408538,-0.298,-0.984,-0.198,-14.25,1.53,-20.69
1638228.448615,-0.232,-0.916,-0.284,-11.93,-5.46,-7.42
1638228.499506,-0.209,-0.951,-0.264,-36.47,8.33,-16.45
1638228.544779,-0.213,-0.942,-0.308,-33.02,-1.25,-11.47
1638228.594891,-0.18,-0.938,-0.343,-44.04,5.28,-19.26
1638228.634989,-0.152,-0.912,-0.371,-30.0,15.72,-14.89
1638228.675147,-0.102,-0.907,-0.438,-25.54,23.59,-0.89
1638228.728602,-0.165,-0.953,-0.512,-36.99,17.67,11.2
1638228.768622,-0.187,-0.928,-0.542,-40.99,21.67,-10.38
1638228.814785,-0.157,-0.671,-0.523,-33.91,24.9,-15.84
1638228.865306,-0.146,-0.634,-0.54,-5.31,24.99,5.22
1638228.915103,-0.176,-0.855,-0.506,-6.5,24.96,4.79
1638228.968371,-0.15,-0.927,-0.505,-14.28,36.53,-11.23
1638229.008666,-0.132,-0.869,-0.477,-8.91,43.43,-11.29
1638229.048850,-0.108,-0.835,-0.459,24.08,25.54,-11.54
1638229.094467,-0.058,-0.802,-0.44,64.94,-21.94,-1.37
1638229.134499,-0.02,-0.704,-0.442,64.52,-13.09,-2.11
1638229.174766,-0.004,-0.688,-0.424,17.7,18.59,9.16
1638229.215043,-0.082,-0.804,-0.435,-49.68,34.09,16.94
1638229.265596,-0.074,-0.968,-0.537,-9.37,19.04,37.57
1638229.318735,-0.09,-0.993,-0.539,29.18,1.8,32.93
1638229.358961,-0.061,-0.956,-0.53,20.39,-1.34,20.94
1638229.404345,-0.041,-0.934,-0.473,1.01,-6.68,-22.25
1638229.448725,-0.043,-0.892,-0.421,4.73,-17.46,-18.77
1638229.494233,-0.052,-0.796,-0.448,-18.25,-19.04,-14.19
1638229.534437,-0.123,-0.792,-0.333,-8.85,-34.06,1.71
1638229.574572,-0.12,-0.8,-0.579,-47.61,-39.55,7.63
1638229.614797,-0.147,-0.856,-0.576,-77.3,-8.0,-19.2
1638229.665228,-0.186,-0.843,-0.522,-30.82,4.18,-27.5
1638229.715330,-0.161,-0.791,-0.538,2.35,-15.96,-17.58
1638229.758627,-0.109,-0.803,-0.448,-69.34,-59.48,-40.38
1638229.799784,-0.128,-0.788,-0.605,-70.16,-55.97,-44.68
1638229.844408,-0.087,-0.744,-0.751,-4.49,-0.82,8.73
1638229.884681,-0.129,-0.85,-0.662,-4.18,6.93,-25.21
1638229.934722,-0.045,-0.755,-0.677,-13.06,6.41,-20.36
1638229.975046,-0.064,-0.686,-0.64,-27.77,13.95,-5.55
1638230.025444,-0.035,-0.724,-0.651,-31.83,14.62,4.15
1638230.065622,-0.066,-0.719,-0.639,-16.05,15.35,5.37
1638230.115572,-0.041,-0.752,-0.671,-3.6,5.77,1.16
1638230.167701,-0.042,-0.755,-0.677,-5.07,5.22,-1.59
1638230.214895,-0.014,-0.71,-0.693,-6.41,9.31,-3.63
1638230.264886,-0.028,-0.69,-0.665,-3.94,1.1,1.92
1638230.305194,-0.031,-0.676,-0.682,2.44,5.83,8.27
1638230.348647,-0.049,-0.704,-0.69,2.14,4.06,11.2
1638230.398950,-0.082,-0.712,-0.674,3.36,-5.16,23.65
1638230.444445,-0.098,-0.665,-0.672,22.16,-3.54,23.99
1638230.494402,-0.094,-0.731,-0.665,35.52,-4.67,22.74
1638230.534413,-0.094,-0.791,-0.649,16.97,-4.79,4.39
1638230.574486,-0.092,-0.848,-0.644,0.12,1.16,-21.21
1638230.618634,-0.11,-0.755,-0.612,-3.51,0.85,-24.72
1638230.668865,-0.196,-0.639,-0.659,-4.21,13.0,31.59
1638230.709021,-0.033,-0.85,-0.621,46.85,23.44,15.78
1638230.754371,-0.078,-0.852,-0.621,24.23,-3.88,13.49
1638230.794752,0.058,-0.779,-0.661,-3.14,-24.05,10.53
1638230.844888,-0.104,-0.833,-0.498,-1.62,11.26,-14.77
1638230.895219,-0.07,-0.734,-0.59,5.22,7.75,-19.2
1638230.945028,-0.064,-0.738,-0.516,-1.31,-9.28,3.72
1638230.994829,-0.076,-0.845,-0.603,4.76,-7.48,2.56
1638231.044530,-0.106,-0.867,-0.662,-2.5,5.31,0.49
1638231.094459,-0.088,-0.795,-0.596,-4.85,12.73,-5.68
1638231.144508,-0.052,-0.707,-0.566,-6.13,7.02,-0.03
1638231.188784,-0.054,-0.69,-0.576,-4.97,-6.53,0.7
1638231.234374,-0.077,-0.769,-0.609,-4.55,-28.75,4.15
1638231.278590,-0.102,-0.837,-0.612,-0.61,-21.24,6.26
1638231.329023,-0.145,-0.9,-0.613,3.81,-5.16,12.42
1638231.374459,-0.118,-0.807,-0.584,7.32,6.07,14.47
1638231.418570,-0.099,-0.75,-0.552,11.17,6.2,21.76
1638231.458796,-0.108,-0.744,-0.565,12.33,7.63,21.36
1638231.508779,-0.142,-0.775,-0.578,8.3,8.18,17.0
1638231.554424,-0.141,-0.787,-0.611,-3.69,2.29,10.74
1638231.598702,-0.156,-0.88,-0.705,-20.45,-2.93,-30.43
1638231.644677,-0.136,-0.915,-0.669,-68.09,8.36,-68.51
1638231.684783,-0.049,-0.728,-0.581,-64.27,13.89,-73.55
1638231.724961,0.01,-0.581,-0.578,-10.19,2.47,-38.0
1638231.775326,-0.004,-0.683,-0.507,34.33,23.04,-6.84
1638231.825720,0.008,-0.503,-0.509,24.72,0.12,5.07
1638231.878809,0.0,-0.668,-0.609,-2.81,-45.9,18.46
1638231.924499,-0.068,-0.84,-0.691,36.99,-17.46,0.06
1638231.964901,-0.055,-0.85,-0.678,13.18,-1.74,-11.44
1638232.014751,-0.017,-0.763,-0.654,-8.39,-1.31,-18.52
1638232.065066,-0.03,-0.749,-0.587,-1.98,7.51,-6.13
1638232.115088,-0.045,-0.71,-0.596,6.96,12.54,-12.09
1638232.165460,-0.017,-0.748,-0.606,14.95,3.48,8.97
1638232.214882,-0.041,-0.837,-0.564,7.69,-1.62,2.72
1638232.264766,-0.021,-0.799,-0.595,-4.49,-6.99,-0.21
1638232.314922,-0.0,-0.699,-0.633,-9.67,-21.85,-11.84
1638232.365323,-0.027,-0.737,-0.602,-9.8,-20.17,-6.68
1638232.405504,-0.035,-0.79,-0.604,-33.45,-13.49,-14.92
1638232.448432,-0.053,-0.817,-0.593,-25.18,-2.78,-14.44
1638232.488704,-0.019,-0.799,-0.677,-3.48,3.6,-8.06
1638232.535059,0.018,-0.751,-0.553,-8.09,-12.33,5.34
1638232.585157,-0.021,-0.764,-0.592,-3.75,-10.93,-9.03
1638232.635277,-0.035,-0.664,-0.656,-3.94,-19.07,-5.83
1638232.685901,-0.017,-0.771,-0.77,-9.55,9.19,-3.42
1638232.738566,-0.062,-0.777,-0.655,14.4,-1.95,4.97
1638232.785369,-0.047,-0.758,-0.639,1.62,7.29,6.1
1638232.835106,-0.035,-0.747,-0.643,1.8,6.81,5.49
1638232.885099,-0.031,-0.75,-0.638,-0.79,18.71,0.7
1638232.935095,-0.009,-0.754,-0.625,-4.49,13.76,8.0
1638232.985405,-0.014,-0.766,-0.654,-4.88,10.99,8.73
1638233.035512,-0.023,-0.739,-0.649,-4.43,10.38,6.9
1638233.085445,-0.042,-0.707,-0.668,1.31,7.72,11.78
1638233.138449,-0.031,-0.711,-0.633,-14.47,3.05,9.64
1638233.188603,-0.029,-0.766,-0.616,-7.48,5.46,3.54
1638233.235239,-0.041,-0.808,-0.621,4.64,-1.43,2.08
1638233.284937,-0.015,-0.796,-0.671,1.4,-5.31,-2.47
1638233.334822,0.038,-0.735,-0.632,-20.05,-10.53,2.72
1638233.385429,-0.029,-0.759,-0.649,-11.75,-3.78,-11.96
1638233.435212,-0.026,-0.732,-0.66,1.19,-3.51,-7.75
1638233.485084,-0.053,-0.723,-0.654,3.39,-1.22,-11.9
1638233.534868,-0.015,-0.725,-0.679,-0.52,-1.56,-8.18
1638233.584546,-0.023,-0.734,-0.65,6.53,-3.94,-5.13
1638233.624631,-0.036,-0.723,-0.66,16.85,-5.25,-1.04
1638233.668790,-0.023,-0.741,-0.673,-1.13,-1.56,-2.17
1638233.715563,-0.03,-0.756,-0.651,-1.74,-6.56,-2.93
1638233.765252,-0.008,-0.728,-0.689,-4.0,-0.03,-8.82
1638233.807972,-0.026,-0.728,-0.65,0.24,1.68,-7.9
1638233.854110,-0.01,-0.728,-0.658,8.3,-2.11,1.53
1638233.899457,-0.013,-0.749,-0.646,6.78,0.82,0.67
1638233.945621,-0.016,-0.747,-0.658,-3.39,-1.95,-5.04
1638233.995190,0.018,-0.718,-0.662,-5.04,-6.23,-1.89
1638234.044853,-0.021,-0.758,-0.661,-3.91,-6.01,-5.13
1638234.093775,-0.041,-0.822,-0.651,1.01,-1.95,-2.78
1638234.143919,-0.02,-0.757,-0.645,-0.64,8.45,-4.06
1638234.188568,-0.017,-0.72,-0.625,-2.53,5.8,-4.82
1638234.235383,-0.017,-0.722,-0.613,-0.21,1.22,1.31
1638234.285084,-0.004,-0.742,-0.645,4.55,-1.34,-0.24
1638234.334756,0.0,-0.758,-0.65,5.62,-2.5,-0.64
1638234.384477,0.012,-0.766,-0.655,-1.53,-1.37,-2.5
1638234.434177,0.001,-0.768,-0.643,-0.7,-0.73,-2.41
1638234.478612,-0.002,-0.75,-0.646,-7.2,0.18,-3.88
1638234.525536,-0.013,-0.741,-0.644,0.0,1.04,-0.76
1638234.575137,-0.007,-0.757,-0.658,-2.14,1.4,-1.8
1638234.624903,-0.013,-0.734,-0.648,2.38,-0.18,0.61
1638234.674610,-0.0,-0.662,-0.717,1.86,-0.03,3.63
1638234.714632,-0.049,-0.761,-0.598,17.3,0.79,14.98
1638234.764345,-0.021,-0.807,-0.616,8.06,1.01,6.2
1638234.808393,-0.017,-0.785,-0.608,-1.04,5.49,0.31
1638234.858388,0.002,-0.746,-0.653,-11.96,-0.52,1.71
1638234.908770,-0.002,-0.754,-0.648,-13.61,5.62,2.11
1638234.953953,-0.014,-0.757,-0.644,-11.11,12.3,0.24
1638234.998315,-0.021,-0.794,-0.633,-2.87,-4.33,2.23
1638235.045290,0.001,-0.785,-0.673,-2.96,0.27,-2.32
1638235.094993,0.005,-0.734,-0.671,-5.04,5.07,-5.1
1638235.144423,-0.007,-0.747,-0.669,4.58,-0.21,-3.3
1638235.194409,-0.018,-0.743,-0.631,2.56,-4.61,-2.69
1638235.238727,-0.003,-0.742,-0.662,-0.12,-1.95,-2.11
1638235.285556,-0.01,-0.748,-0.657,-5.58,-1.04,-3.51
1638235.335272,0.006,-0.732,-0.66,-8.73,-1.59,-6.38
1638235.384893,-0.0,-0.726,-0.672,-1.46,-1.34,-2.93
1638235.434604,-0.001,-0.729,-0.662,-3.27,-1.13,-2.93
1638235.484268,-0.002,-0.736,-0.665,-1.68,-0.09,-0.76
1638235.528910,0.0,-0.735,-0.664,-1.1,0.15,-1.8
1638235.575477,0.001,-0.736,-0.662,5.77,-0.92,-0.67
1638235.625309,0.005,-0.734,-0.664,3.3,-2.93,-0.73
1638235.674979,0.0,-0.753,-0.644,3.66,-2.96,-1.1
1638235.724710,-0.003,-0.745,-0.667,3.78,-1.1,-2.23
1638235.774306,-0.006,-0.73,-0.658,4.52,-0.98,0.15
1638235.814675,-0.007,-0.753,-0.645,17.18,-2.14,2.29
1638235.858738,-0.001,-0.758,-0.643,9.49,0.34,0.92
1638235.905330,0.001,-0.773,-0.656,5.07,-3.05,-0.18
1638235.954978,-0.01,-0.755,-0.656,4.88,-1.46,-0.09
1638236.006394,-0.001,-0.707,-0.679,20.11,0.95,1.68
1638236.055193,0.042,-0.666,-0.66,22.58,6.32,8.7
1638236.108677,0.007,-0.771,-0.634,37.26,28.96,15.23
1638236.149228,0.025,-0.931,-0.652,9.28,48.31,17.18
1638236.194903,0.023,-0.883,-0.68,41.29,73.82,13.76
1638236.235193,0.062,-0.84,-0.544,27.83,68.27,15.69
1638236.275315,0.011,-0.854,-0.331,-19.68,69.25,4.79
1638236.328566,-0.046,-0.787,-0.195,-29.21,-19.75,16.57
1638236.368577,0.005,-0.889,-0.353,-32.11,-60.85,8.67
1638236.409163,-0.037,-0.867,-0.494,-35.8,-43.09,-23.62
1638236.454840,-0.047,-0.857,-0.64,-7.9,-61.16,-13.98
1638236.495175,0.045,-0.682,-0.819,-12.18,-41.26,-19.96
1638236.545400,-0.005,-0.767,-0.631,-5.62,10.13,-1.19
1638236.595226,-0.006,-0.788,-0.621,3.85,-17.21,-3.54
1638236.645080,0.02,-0.8,-0.639,-2.32,0.12,-7.42
1638236.694691,0.003,-0.763,-0.673,-10.07,-6.81,-0.76
1638236.745287,-0.001,-0.725,-0.68,-21.36,11.6,0.55
1638236.799486,-0.007,-0.751,-0.633,-20.97,18.13,4.61
1638236.849754,-0.034,-0.818,-0.522,7.51,8.36,10.13
1638236.894322,0.001,-0.803,-0.628,1.28,-9.31,4.58
1638236.935281,-0.006,-0.774,-0.629,0.24,1.65,0.21
1638236.985091,0.011,-0.759,-0.619,-1.98,-0.37,-2.78
1638237.034749,0.014,-0.766,-0.657,4.55,-1.77,-0.82
1638237.084339,-0.002,-0.763,-0.627,-1.68,1.37,-2.47
1638237.129013,0.008,-0.758,-0.664,4.06,4.7,-3.97
1638237.178614,-0.013,-0.748,-0.649,4.3,4.79,1.01
1638237.225547,0.014,-0.782,-0.625,-1.19,4.94,-0.27
1638237.275132,-0.006,-0.755,-0.617,-0.92,4.61,4.09
1638237.324965,0.016,-0.754,-0.642,-1.28,3.36,3.27
1638237.374555,-0.03,-0.753,-0.615,1.1,4.91,2.38
1638237.418815,0.013,-0.757,-0.647,6.44,4.73,3.45
1638237.468575,-0.013,-0.74,-0.601,3.54,6.2,7.93
1638237.518602,-0.021,-0.754,-0.615,9.06,-0.21,14.37
1638237.568798,-0.023,-0.776,-0.612,8.27,-7.02,15.14
1638237.614883,-0.053,-0.774,-0.596,12.94,-10.77,21.45
1638237.665076,-0.019,-0.767,-0.593,11.9,10.83,40.86
1638237.715587,-0.069,-0.782,-0.668,-8.67,15.81,7.17
1638237.768721,-0.073,-0.778,-0.612,-29.57,3.72,-14.04
1638237.808939,-0.068,-0.751,-0.607,-28.47,-1.19,-15.75
1638237.854021,-0.057,-0.752,-0.59,-5.92,6.26,-4.21
1638237.895616,-0.059,-0.822,-0.585,14.31,7.39,6.62
1638237.945517,-0.017,-0.847,-0.675,-4.7,-5.86,-6.38
1638237.995588,-0.024,-0.747,-0.638,-3.91,-7.87,-14.98
1638238.045629,-0.021,-0.75,-0.644,10.01,-9.16,-7.05
1638238.095283,-0.027,-0.763,-0.609,-2.78,1.83,-1.62
1638238.145118,-0.037,-0.859,-0.658,-4.7,-1.07,0.55
1638238.195361,-0.017,-0.786,-0.651,-13.76,-1.22,-13.79
1638238.235517,-0.037,-0.734,-0.647,-5.65,-1.25,-10.93
1638238.284664,-0.04,-0.745,-0.636,3.6,-0.37,-3.27
1638238.334280,-0.02,-0.732,-0.631,7.87,-2.41,-1.31
1638238.378880,0.002,-0.709,-0.688,2.38,-5.04,0.82
1638238.428529,-0.027,-0.741,-0.617,-11.51,7.78,3.39
1638238.478579,-0.039,-0.795,-0.628,2.29,-3.02,5.52
1638238.525407,-0.028,-0.792,-0.658,1.59,3.45,2.32
1638238.575103,-0.015,-0.781,-0.621,-3.81,3.51,-1.74
1638238.624884,-0.019,-0.751,-0.622,7.87,-0.64,0.09
1638238.674895,-0.007,-0.729,-0.627,16.82,7.45,6.87
1638238.715514,-0.016,-0.799,-0.606,25.97,11.75,21.73
1638238.768743,-0.03,-0.815,-0.596,25.21,15.05,17.33
1638238.814721,-0.028,-0.811,-0.579,27.65,8.21,9.77
1638238.864946,-0.003,-0.801,-0.559,28.29,4.06,0.09
1638238.914925,-0.044,-0.85,-0.533,29.39,2.08,4.12
1638238.960905,-0.035,-0.844,-0.584,16.17,-5.34,-0.98
1638239.004392,-0.018,-0.767,-0.678,-26.4,-5.58,-8.09
1638239.044798,-0.031,-0.749,-0.623,-95.55,4.24,-13.67
1638239.095064,-0.069,-0.778,-0.45,-64.97,8.82,-7.11
1638239.145162,-0.045,-0.823,-0.613,-7.26,-7.81,-0.58
1638239.194797,-0.011,-0.782,-0.659,5.1,-8.21,-7.2
1638239.244502,0.002,-0.773,-0.652,9.64,-4.09,-2.2
1638239.294198,0.029,-0.745,-0.682,3.75,-1.83,-9.49
1638239.338622,0.005,-0.745,-0.647,6.1,6.23,-5.22
1638239.385395,-0.007,-0.772,-0.621,9.0,3.08,-1.1
1638239.435460,-0.004,-0.786,-0.617,35.86,0.0,-8.0
1638239.488473,0.135,-0.721,-0.867,60.88,6.5,-16.17
1638239.534236,0.179,-0.6,-0.786,254.01,96.35,32.93
1638239.578439,0.304,-0.826,-0.246,498.06,101.66,190.25
1638239.628181,0.033,-0.705,0.213,717.52,106.69,277.54
1638239.678191,-0.46,0.289,0.561,554.34,235.72,235.57
1638239.725567,-1.557,0.359,1.509,-167.55,134.07,30.24
1638239.768415,-1.885,-0.308,1.428,-114.72,-110.48,116.61
1638239.818341,-0.966,-0.701,0.724,-118.29,-232.18,-4.43
1638239.865036,-1.066,-0.424,0.694,-181.77,37.2,15.84
1638239.918391,-0.258,-0.546,0.214,92.29,37.17,3.36
1638239.958804,-0.438,-0.378,0.406,-2.47,119.17,-30.95
1638240.004877,-0.767,-0.281,1.14,94.61,153.63,29.66
1638240.075151,-1.083,-0.091,1.593,49.32,166.26,13.92
1638240.115917,-1.07,-0.283,1.68,-140.42,-44.68,-64.33
1638240.165182,-0.857,-0.39,2.397,-66.81,292.58,88.84
1638240.208871,-0.735,-0.683,0.732,-29.18,-67.2,88.2
1638240.255699,-0.272,-0.527,0.188,154.03,-71.66,106.91
1638240.299458,-0.658,-0.253,0.852,39.25,178.75,-24.93
1638240.344939,-1.321,-0.042,1.789,-44.53,55.97,-18.56
1638240.385502,-0.975,-0.145,1.17,-45.96,-186.04,21.97
1638240.434885,-0.287,-1.26,0.84,112.25,49.5,65.71
1638240.475087,-0.782,-0.824,0.521,-100.25,-21.18,29.15
1638240.515409,-0.465,-0.647,0.572,81.55,13.58,16.48
1638240.558544,-0.731,-0.227,0.981,81.61,118.59,-47.03
1638240.604446,-0.986,-0.113,1.358,-41.38,17.85,-40.31
1638240.645248,0.021,0.369,-2.258,-38.51,-198.74,47.73
1638240.685518,-0.837,-0.923,0.611,-20.66,4.3,42.05
1638240.728581,-1.022,-0.578,0.628,-66.26,-62.17,17.52
1638240.774521,-0.529,-0.484,0.821,42.02,35.25,-69.25
1638240.814538,-0.696,-0.177,1.004,20.14,57.19,-80.14
1638240.855074,-0.795,-0.101,0.937,-27.28,9.95,-35.4
1638240.895290,-0.716,-0.526,1.377,-40.5,64.33,44.25
1638240.935391,-0.948,-0.944,0.35,-34.79,-43.12,67.45
1638240.978433,-0.794,-1.477,0.304,182.13,-82.71,31.65
1638241.025539,-0.902,-0.895,0.311,153.48,1.77,-200.6
1638241.069042,-1.016,-0.241,0.606,170.75,27.22,-228.55
1638241.118505,-0.928,0.254,0.789,147.68,10.86,-155.92
1638241.165164,-0.714,0.359,0.969,12.09,-21.36,-167.42
1638241.205492,-0.5,0.425,0.964,-60.4,-50.05,-166.51
1638241.250097,-0.38,0.368,0.906,-106.23,-62.69,-115.67
1638241.299328,-0.14,-0.015,0.699,-228.8,-16.33,-100.53
1638241.345313,-0.151,-0.527,0.531,-399.21,32.47,-199.99
1638241.388753,-0.301,-0.781,0.572,-404.16,-19.04,-146.18
1638241.438292,-0.378,-0.775,0.022,-233.07,-191.84,-73.64
1638241.485355,-0.557,-0.849,-0.797,-313.94,-286.75,-81.61
1638241.535265,-0.468,0.411,-0.83,-376.42,-39.8,-135.96
1638241.578209,0.155,-0.388,-1.437,84.11,-96.38,94.58
1638241.625418,-0.092,-1.093,-0.729,145.91,-164.71,96.01
1638241.668895,-0.208,-1.064,-0.662,168.89,-90.52,27.89
1638241.715522,-0.15,-0.926,-0.449,92.9,-18.01,14.74
1638241.768737,-0.183,-0.845,-0.336,23.47,-17.37,6.1
1638241.808828,-0.201,-0.904,-0.398,-30.98,-13.09,14.53
1638241.849640,-0.213,-0.905,-0.469,-16.57,1.74,10.32
1638241.894667,-0.234,-0.925,-0.502,12.7,5.86,13.43
1638241.938590,-0.292,-0.876,-0.494,2.01,11.9,2.66
1638241.988920,-0.299,-0.878,-0.426,11.78,29.82,-2.56
1638242.028947,-0.29,-0.847,-0.405,-9.19,34.97,-13.31
1638242.074268,-0.28,-0.892,-0.371,-11.47,51.33,-12.27
1638242.114550,-0.262,-0.888,-0.372,0.24,48.1,-3.63
1638242.164888,-0.222,-0.883,-0.401,-23.1,55.88,0.0
1638242.215543,-0.284,-0.863,-0.324,13.15,28.5,36.1
1638242.258777,-0.378,-0.711,-0.401,36.38,9.64,71.47
1638242.298787,-0.259,-0.741,-0.396,45.08,-42.24,63.08
1638242.344653,-0.325,-0.955,-0.355,43.12,-23.32,4.97
1638242.394934,-0.321,-1.066,-0.405,18.86,-7.75,-7.32
1638242.445750,-0.291,-0.982,-0.264,11.44,-5.49,-3.17
1638242.495122,-0.276,-0.964,-0.213,9.4,7.05,-8.88
1638242.538175,-0.292,-0.9,-0.257,-5.46,30.95,-16.39
1638242.588268,-0.243,-0.751,-0.285,-14.28,24.84,-0.89
1638242.628743,-0.201,-0.72,-0.291,-16.42,11.05,18.04
1638242.673911,-0.293,-0.847,-0.411,3.85,0.09,41.51
1638242.718372,-0.382,-1.039,-0.483,7.81,-2.41,35.55
1638242.768466,-0.379,-0.971,-0.419,-9.8,9.8,-20.94
1638242.808652,-0.378,-0.851,-0.433,-25.33,35.98,-47.21
1638242.854641,-0.342,-0.95,-0.356,-17.55,52.1,-21.15
1638242.895264,-0.32,-1.106,-0.525,-24.9,41.75,-55.85
1638242.948332,-0.242,-0.926,-0.266,8.21,-36.16,-63.36
1638242.988458,-0.161,-0.855,-0.326,6.99,-51.48,-31.19
1638243.034494,-0.199,-0.884,-0.163,6.41,-33.2,-24.05
1638243.074598,-0.13,-0.799,-0.291,68.97,-64.52,9.58
1638243.114985,-0.098,-0.78,-0.334,54.54,-54.6,22.64
1638243.155136,-0.168,-0.801,-0.479,16.51,9.46,12.05
1638243.195267,-0.357,-1.013,-0.289,6.68,40.56,16.45
1638243.235392,-0.26,-0.928,-0.26,33.17,-2.53,-2.5
1638243.275746,-0.199,-0.838,-0.262,20.05,-8.48,0.31
1638243.325734,-0.15,-0.906,-0.324,11.23,-5.68,29.63
1638243.368404,-0.153,-0.954,-0.322,-20.45,15.26,12.42
1638243.419005,-0.197,-0.987,-0.341,-12.12,4.43,8.79
1638243.459235,-0.194,-1.009,-0.316,-5.16,2.11,11.81
1638243.505791,-0.21,-0.991,-0.332,-6.87,7.45,1.71
1638243.555253,-0.199,-0.968,-0.296,-4.61,-4.85,-0.52
1638243.604758,-0.209,-0.888,-0.261,-4.21,-2.17,-8.58
1638243.654929,-0.204,-0.901,-0.264,0.79,3.14,-15.17
1638243.705007,-0.207,-0.893,-0.276,-16.54,6.71,-23.41
1638243.745284,-0.184,-0.864,-0.266,-21.52,12.63,-33.57
1638243.792920,-0.177,-0.841,-0.264,-19.41,17.0,-31.43
1638243.838565,-0.214,-0.952,-0.293,-11.72,-5.28,12.15
1638243.878772,-0.281,-1.088,-0.308,9.77,-29.24,25.24
1638243.925472,-0.238,-0.971,-0.351,33.78,-21.3,13.03
1638243.975403,-0.222,-0.923,-0.314,7.9,-17.73,-8.21
1638244.028709,-0.212,-0.931,-0.192,3.11,-21.33,-27.38
1638244.075904,-0.174,-0.946,-0.284,-9.49,-34.36,-26.22
1638244.125529,-0.134,-0.966,-0.314,-13.25,-32.01,-23.77
1638244.165784,-0.146,-0.971,-0.439,-25.54,-43.76,-19.2
1638244.208771,-0.198,-1.0,-0.286,-2.2,-36.87,-27.1
1638244.249846,-0.192,-0.949,-0.305,37.23,-33.72,-20.17
1638244.294817,-0.063,-0.989,-0.362,-10.19,2.2,-53.99
1638244.345364,-0.114,-0.913,-0.268,22.06,-21.67,-26.12
1638244.395703,-0.027,-0.874,-0.304,5.58,-1.68,5.22
1638244.445415,-0.069,-0.865,-0.232,1.68,0.61,4.49
1638244.495310,-0.106,-0.949,-0.227,1.16,-9.64,12.12
1638244.545482,-0.13,-0.986,-0.154,4.91,6.74,3.23
1638244.595071,-0.131,-1.025,-0.238,6.13,-1.34,-6.5
1638244.645409,-0.101,-0.958,-0.245,-12.7,9.58,-11.72
1638244.695437,-0.105,-0.912,-0.275,4.46,5.65,-0.92
1638244.745589,-0.12,-0.93,-0.271,11.35,2.81,11.75
1638244.799972,-0.132,-0.946,-0.244,15.93,10.1,11.51
1638244.844496,-0.109,-0.968,-0.22,8.79,13.92,7.02
1638244.894416,-0.107,-0.987,-0.191,8.55,7.42,2.81
1638244.938703,-0.104,-1.0,-0.19,3.57,3.14,0.09
1638244.985573,-0.099,-1.009,-0.203,-2.29,3.85,0.15
1638245.034960,-0.097,-0.991,-0.217,-5.07,2.5,-8.27
1638245.084970,-0.088,-0.956,-0.22,-8.21,2.04,-7.45
1638245.134644,-0.081,-0.946,-0.207,-6.93,0.92,-1.43
1638245.184345,-0.09,-0.963,-0.228,-4.18,-1.56,4.0
1638245.228785,-0.097,-0.962,-0.236,-4.76,-2.9,4.67
1638245.275777,-0.105,-0.94,-0.258,-4.15,0.49,11.23
1638245.328708,-0.124,-0.94,-0.249,3.48,13.0,21.06
1638245.375270,-0.134,-1.016,-0.252,-7.63,31.89,5.49
1638245.424973,-0.088,-1.04,-0.337,-35.89,25.61,-25.88
1638245.465293,-0.061,-0.976,-0.364,-57.28,41.75,-46.69
1638245.505579,-0.089,-0.933,-0.239,-30.43,34.58,-41.44
1638245.545762,-0.003,-0.871,-0.364,-4.46,9.8,-18.16
1638245.598568,-0.005,-0.875,-0.31,-3.51,15.05,1.22
1638245.644639,-0.016,-0.974,-0.203,17.12,2.41,13.12
1638245.688782,0.005,-1.0,-0.291,18.92,6.41,-6.1
1638245.741593,0.012,-0.969,-0.298,4.36,8.79,-5.22
1638245.788591,0.004,-0.958,-0.308,7.72,-10.44,-3.81
1638245.835708,0.001,-0.923,-0.357,9.4,1.83,-5.71
1638245.885617,-0.004,-0.955,-0.319,5.77,4.18,2.84
1638245.935289,0.007,-0.971,-0.324,-13.82,8.85,-9.09
1638245.975557,0.021,-0.924,-0.319,-15.44,7.87,-13.92
1638246.028849,0.031,-0.914,-0.315,-8.45,5.31,-11.99
1638246.075974,0.034,-0.939,-0.302,-8.36,1.95,-7.05
1638246.125519,0.042,-0.953,-0.34,-1.04,3.05,-6.59
1638246.175179,0.053,-0.919,-0.317,8.91,-3.45,0.55
1638246.225450,0.029,-0.877,-0.328,24.23,-5.1,12.85
1638246.265652,0.02,-0.892,-0.331,21.18,-10.41,28.44
1638246.318698,-0.036,-0.956,-0.259,4.18,-9.74,32.01
1638246.359097,-0.046,-0.981,-0.274,3.81,-14.07,33.45
1638246.403960,-0.018,-0.983,-0.337,-2.17,-5.13,20.08
1638246.449850,-0.009,-0.973,-0.347,-21.49,11.9,-3.39
1638246.494774,0.052,-0.858,-0.149,-43.67,0.18,29.51
1638246.534930,-0.059,-0.966,-0.202,-3.17,5.55,33.42
1638246.584523,-0.054,-1.007,-0.363,5.71,-7.66,15.02
1638246.634660,-0.086,-0.987,-0.297,-2.01,-3.81,8.45
1638246.674844,-0.094,-0.948,-0.347,5.68,-10.19,-0.73
1638246.718662,-0.092,-0.979,-0.345,-6.81,0.24,-10.65
1638246.758753,-0.073,-0.928,-0.394,-26.92,1.68,-23.56
1638246.799120,-0.055,-0.877,-0.396,-42.76,8.39,-17.15
1638246.845019,-0.019,-0.884,-0.39,-46.94,16.85,-14.56
1638246.895516,-0.048,-0.913,-0.374,-25.73,10.65,-23.22
1638246.949794,-0.037,-0.911,-0.431,-26.83,7.14,-18.89
1638246.994745,-0.042,-0.868,-0.397,-15.75,2.08,-1.89
1638247.035672,-0.015,-0.912,-0.457,3.66,-4.0,4.52
1638247.085368,-0.014,-0.928,-0.463,-0.98,-2.23,5.04
1638247.135026,0.01,-0.862,-0.478,-1.83,5.34,-3.39
1638247.184748,0.011,-0.85,-0.488,2.53,-0.15,-3.27
1638247.224801,0.01,-0.851,-0.492,-13.73,1.62,-6.53
1638247.268908,-0.018,-0.838,-0.478,-16.11,1.22,-2.35
1638247.318794,-0.024,-0.807,-0.533,-4.09,-6.07,16.48
1638247.364919,-0.074,-0.892,-0.422,-18.74,9.09,13.95
1638247.409116,-0.052,-0.925,-0.45,10.38,-4.43,15.05
1638247.449740,0.186,-0.978,-0.675,3.48,-31.13,-30.21
1638247.495211,0.074,-0.819,-0.735,-65.28,-37.63,-105.08
1638247.535230,0.286,-0.897,-0.944,60.61,32.96,3.2
1638247.578649,0.144,-0.87,-0.666,27.95,131.63,35.95
1638247.625226,0.004,-0.897,-0.412,43.49,125.43,43.86
1638247.665667,-0.065,-0.881,-0.261,64.27,108.92,54.05
1638247.709274,-0.116,-0.873,-0.156,57.28,68.94,45.78
1638247.755060,-0.183,-0.908,0.005,18.43,31.86,19.5
1638247.804940,-0.191,-0.897,0.03,-6.5,-16.79,-4.12
1638247.855210,-0.157,-0.868,-0.02,3.88,-62.14,5.83
1638247.905656,-0.091,-0.923,-0.152,-18.65,-102.51,6.93
1638247.948850,-0.061,-0.974,-0.301,-31.77,-122.5,-8.24
1638247.995290,0.114,-1.015,-0.916,-101.08,-115.02,-21.79
1638248.038405,-0.013,-1.147,-0.724,75.72,-103.85,-37.45
1638248.079007,0.241,-0.757,-0.933,16.91,-46.75,21.12
1638248.125084,-0.039,-0.865,-0.437,-18.19,24.26,-20.57
1638248.175226,-0.077,-0.919,-0.364,-6.84,2.69,9.13
1638248.225020,-0.028,-0.928,-0.392,3.6,-2.26,-2.5
1638248.274758,-0.054,-0.919,-0.304,2.14,1.77,1.04
1638248.314813,-0.065,-0.957,-0.299,4.76,-14.13,-1.89
1638248.359217,-0.078,-0.943,-0.265,24.69,-18.89,-0.03
1638248.404471,-0.04,-0.904,-0.358,20.11,-11.81,5.86
1638248.444870,-0.075,-0.932,-0.289,21.85,-5.58,10.93
1638248.494605,-0.046,-0.958,-0.33,36.53,-3.88,6.32
1638248.534785,-0.056,-0.944,-0.287,14.8,4.52,3.3
1638248.578567,-0.051,-0.999,-0.293,15.9,3.57,3.81
1638248.628635,-0.084,-0.992,-0.265,-6.23,-3.02,0.31
1638248.678795,-0.078,-0.991,-0.266,-18.01,4.09,-11.93
1638248.724911,-0.06,-0.954,-0.312,-26.4,-1.8,-20.87
1638248.765102,-0.045,-0.906,-0.326,-29.45,1.31,-19.96
1638248.814853,-0.043,-0.905,-0.309,-13.0,-0.4,-9.0
1638248.864897,-0.065,-0.939,-0.278,19.44,2.2,10.99
1638248.915398,-0.031,-0.96,-0.313,17.61,-3.39,13.09
1638248.965753,-0.03,-0.947,-0.33,5.89,0.37,11.35
1638249.015337,-0.046,-0.901,-0.35,-6.44,4.06,6.56
1638249.065436,-0.061,-0.923,-0.328,-13.25,-0.37,4.82
1638249.115198,-0.088,-0.933,-0.273,3.02,2.14,7.9
1638249.165141,-0.067,-0.968,-0.314,-0.55,0.82,9.25
1638249.214907,-0.084,-0.982,-0.272,-0.49,-1.31,5.52
1638249.264475,-0.071,-0.977,-0.31,2.29,-3.81,5.4
1638249.309205,-0.079,-0.97,-0.294,-1.89,-1.07,0.03
1638249.355668,-0.061,-0.974,-0.326,-5.28,-5.01,-1.4
1638249.405421,-0.078,-0.934,-0.297,-3.88,-1.4,-5.74
1638249.455005,-0.077,-0.917,-0.323,1.98,0.31,-0.46
1638249.504778,-0.093,-0.961,-0.289,-3.27,0.18,0.18
1638249.554452,-0.093,-0.956,-0.307,-6.96,-7.69,-2.93
1638249.598619,-0.079,-0.938,-0.337,-14.01,-1.53,-6.2
1638249.649853,-0.054,-0.932,-0.389,4.97,-5.92,-4.97
1638249.695558,-0.073,-0.912,-0.318,3.36,7.23,0.4
1638249.745335,-0.096,-0.95,-0.284,3.69,4.03,2.32
1638249.794927,-0.082,-0.965,-0.311,-1.37,7.14,6.32
1638249.844629,-0.078,-0.956,-0.32,-7.05,6.26,0.98
1638249.894315,-0.066,-0.927,-0.325,-6.53,5.49,-3.36
1638249.938551,-0.065,-0.914,-0.326,-8.88,3.66,-1.68
1638249.985347,-0.073,-0.946,-0.331,-6.87,2.38,1.83
