t_monotonic,ax,ay,az,gx,gy,gz
318116.140000,-0.198,-0.453,0.904,-0.55,1.59,-0.49
318116.171000,-0.199,-0.453,0.905,-0.61,1.04,-0.73
318116.171000,-0.199,-0.453,0.9,-0.18,0.0,-0.79
318116.171000,-0.196,-0.447,0.895,0.34,-0.52,-0.82
318116.187000,-0.19,-0.443,0.89,0.46,-0.82,-0.79
318116.187000,-0.188,-0.444,0.885,0.98,-0.46,-0.61
318116.203000,-0.188,-0.442,0.886,1.13,0.21,-0.37
318116.234000,-0.189,-0.439,0.885,0.85,0.58,-0.15
318116.234000,-0.187,-0.44,0.885,0.61,0.82,0.34
318116.250000,-0.187,-0.441,0.885,0.24,1.07,0.76
318116.250000,-0.188,-0.442,0.886,-0.15,1.37,1.04
318116.265000,-0.188,-0.443,0.892,-0.31,1.56,1.4
318116.281000,-0.188,-0.446,0.898,-0.15,1.62,1.62
318116.281000,-0.191,-0.448,0.899,-0.03,1.5,1.65
318116.296000,-0.191,-0.448,0.899,0.09,1.31,1.95
318116.312000,-0.19,-0.446,0.897,0.09,0.7,1.92
318116.312000,-0.188,-0.445,0.897,0.0,0.4,2.04
318116.328000,-0.187,-0.447,0.895,0.15,0.03,2.32
318116.328000,-0.188,-0.444,0.895,-0.18,-0.24,2.5
318116.343000,-0.187,-0.445,0.894,-0.31,-0.31,2.72
318116.343000,-0.187,-0.448,0.894,-0.27,-0.12,2.96
318116.359000,-0.188,-0.452,0.896,-0.43,0.27,3.23
318116.375000,-0.19,-0.451,0.9,-0.49,0.34,3.23
318116.390000,-0.193,-0.455,0.906,-0.46,0.34,3.23
318116.390000,-0.192,-0.458,0.908,-0.31,0.12,3.2
318116.406000,-0.193,-0.457,0.909,-0.24,-0.4,2.9
318116.421000,-0.193,-0.458,0.908,-0.06,-0.85,2.9
318116.421000,-0.193,-0.459,0.908,-0.18,-1.19,2.72
318116.437000,-0.191,-0.459,0.907,-0.31,-1.62,2.59
318116.437000,-0.192,-0.463,0.906,-0.27,-2.11,2.47
318116.453000,-0.192,-0.46,0.903,-0.09,-2.38,2.29
318116.468000,-0.191,-0.457,0.898,-0.31,-2.56,2.08
318116.468000,-0.192,-0.456,0.892,-0.76,-2.62,2.04
318116.484000,-0.193,-0.456,0.886,-1.4,-2.53,2.11
318116.500000,-0.193,-0.456,0.885,-1.95,-2.17,2.17
318116.500000,-0.193,-0.456,0.886,-2.17,-1.77,2.26
318116.515000,-0.196,-0.458,0.884,-2.23,-1.62,2.35
318116.531000,-0.198,-0.461,0.884,-2.23,-1.46,2.2
318116.531000,-0.198,-0.463,0.884,-1.86,-1.19,1.65
318116.546000,-0.199,-0.462,0.886,-1.37,-1.19,1.22
318116.546000,-0.201,-0.464,0.885,-0.7,-1.07,0.79
318116.562000,-0.202,-0.463,0.887,0.0,-0.85,0.34
318116.578000,-0.202,-0.463,0.887,0.76,-0.52,-0.03
318116.578000,-0.203,-0.459,0.885,1.01,-0.58,-0.18
318116.593000,-0.204,-0.454,0.884,0.82,-0.61,-0.4
318116.609000,-0.204,-0.454,0.884,0.52,-0.46,-0.46
318116.609000,-0.205,-0.454,0.885,0.15,-0.15,-0.49
318116.625000,-0.205,-0.455,0.885,-0.24,-0.03,-0.55
318116.640000,-0.204,-0.455,0.884,-0.15,0.31,-0.61
318116.640000,-0.202,-0.452,0.882,0.24,0.37,-0.67
318116.656000,-0.203,-0.449,0.882,0.55,0.61,-0.58
318116.671000,-0.202,-0.448,0.881,0.64,1.16,-0.34
318116.671000,-0.202,-0.449,0.881,0.15,1.62,0.03
318116.671000,-0.2,-0.45,0.883,-0.52,1.92,0.34
318116.687000,-0.201,-0.45,0.882,-1.43,2.29,0.7
318116.703000,-0.201,-0.455,0.885,-2.01,2.5,0.85
318116.718000,-0.201,-0.46,0.887,-2.35,2.44,0.64
318116.718000,-0.199,-0.461,0.892,-1.8,2.23,0.4
318116.734000,-0.2,-0.46,0.895,-0.95,2.08,0.0
318116.734000,-0.199,-0.458,0.889,-0.12,1.89,-0.55
318116.750000,-0.198,-0.458,0.886,0.58,1.89,-0.82
318116.765000,-0.195,-0.459,0.885,0.89,2.26,-1.01
318116.765000,-0.196,-0.459,0.885,0.98,2.62,-1.25
318116.781000,-0.198,-0.461,0.889,1.13,2.93,-1.5
318116.796000,-0.2,-0.461,0.891,1.46,3.02,-1.86
318116.796000,-0.201,-0.46,0.894,1.74,3.05,-2.04
318116.812000,-0.203,-0.456,0.892,1.8,2.78,-2.32
318116.828000,-0.202,-0.454,0.888,1.46,2.56,-2.38
318116.828000,-0.201,-0.455,0.89,1.25,2.78,-2.14
318116.843000,-0.203,-0.456,0.891,0.7,3.11,-2.14
318116.843000,-0.206,-0.455,0.894,0.12,3.27,-2.08
318116.859000,-0.205,-0.46,0.898,-0.12,2.99,-1.92
318116.875000,-0.205,-0.462,0.9,-0.12,2.69,-1.98
318116.890000,-0.205,-0.46,0.897,0.09,2.04,-2.08
318116.890000,-0.204,-0.459,0.891,0.43,1.53,-2.14
318116.890000,-0.201,-0.46,0.888,0.46,1.77,-2.17
318116.906000,-0.202,-0.462,0.888,0.12,1.98,-2.35
318116.906000,-0.204,-0.461,0.889,0.0,1.89,-2.72
318116.937000,-0.201,-0.462,0.886,0.27,1.83,-2.75
318116.937000,-0.2,-0.462,0.885,0.55,1.71,-2.84
318116.937000,-0.2,-0.464,0.886,0.73,2.04,-2.9
318116.968000,-0.2,-0.465,0.885,0.7,2.44,-2.99
318116.968000,-0.201,-0.463,0.882,0.73,2.5,-3.36
318116.968000,-0.202,-0.461,0.883,0.89,2.56,-3.63
318116.984000,-0.2,-0.462,0.885,1.22,2.69,-3.88
318116.984000,-0.201,-0.46,0.885,1.53,2.59,-4.09
318117.000000,-0.199,-0.459,0.882,1.8,2.75,-4.21
318117.031000,-0.198,-0.454,0.881,2.17,2.87,-4.15
318117.031000,-0.198,-0.45,0.882,1.89,3.23,-3.94
318117.046000,-0.203,-0.45,0.883,1.5,3.57,-3.63
318117.062000,-0.204,-0.45,0.889,0.82,3.78,-3.54
318117.062000,-0.203,-0.456,0.894,0.64,3.88,-3.05
318117.078000,-0.204,-0.457,0.901,0.85,3.57,-3.14
318117.078000,-0.203,-0.456,0.902,1.5,3.3,-3.23
318117.093000,-0.203,-0.454,0.901,2.08,2.81,-3.23
318117.109000,-0.203,-0.452,0.898,2.29,2.26,-3.23
318117.109000,-0.2,-0.452,0.898,2.35,2.11,-3.2
318117.125000,-0.197,-0.449,0.895,2.26,1.77,-3.08
318117.140000,-0.195,-0.447,0.892,1.74,1.92,-2.81
318117.140000,-0.194,-0.447,0.889,1.62,2.23,-2.62
318117.156000,-0.192,-0.447,0.887,1.53,2.17,-2.53
318117.171000,-0.192,-0.448,0.891,1.74,2.41,-2.5
318117.171000,-0.195,-0.448,0.892,2.29,2.5,-2.66
318117.187000,-0.197,-0.447,0.895,2.96,2.47,-2.75
318117.203000,-0.198,-0.443,0.896,3.6,2.26,-2.62
318117.203000,-0.2,-0.439,0.895,3.75,2.01,-2.44
318117.218000,-0.196,-0.438,0.894,3.33,1.98,-2.01
318117.218000,-0.198,-0.439,0.895,2.87,2.04,-1.59
318117.234000,-0.199,-0.437,0.896,2.35,2.23,-1.22
318117.234000,-0.201,-0.438,0.9,1.92,2.23,-0.98
318117.250000,-0.2,-0.439,0.903,2.04,1.86,-0.82
318117.265000,-0.202,-0.438,0.905,2.23,1.46,-0.73
318117.281000,-0.202,-0.441,0.904,2.26,0.95,-0.43
318117.281000,-0.201,-0.437,0.9,2.23,0.61,-0.09
318117.296000,-0.201,-0.434,0.898,1.86,0.46,0.21
318117.312000,-0.199,-0.437,0.9,1.53,0.34,0.58
318117.312000,-0.199,-0.442,0.899,1.31,0.24,0.89
318117.328000,-0.199,-0.443,0.895,1.04,0.06,0.89
318117.328000,-0.2,-0.442,0.893,0.98,-0.15,0.67
318117.343000,-0.201,-0.442,0.893,0.95,-0.15,0.61
318117.359000,-0.2,-0.444,0.889,0.92,0.0,0.67
318117.359000,-0.203,-0.444,0.885,0.76,0.06,0.7
318117.375000,-0.204,-0.443,0.888,0.82,0.55,0.76
318117.390000,-0.206,-0.443,0.894,1.13,1.28,0.82
318117.390000,-0.209,-0.443,0.898,1.34,1.62,0.85
318117.406000,-0.21,-0.444,0.899,1.56,1.65,1.1
318117.406000,-0.21,-0.445,0.901,1.37,1.56,1.16
318117.421000,-0.21,-0.443,0.9,0.89,0.95,1.4
318117.437000,-0.208,-0.444,0.901,0.55,0.31,1.59
318117.437000,-0.206,-0.444,0.897,0.43,0.06,1.62
318117.453000,-0.204,-0.445,0.891,0.31,-0.03,1.8
318117.453000,-0.205,-0.446,0.89,0.37,0.09,2.04
318117.468000,-0.203,-0.446,0.889,0.21,0.37,2.14
318117.484000,-0.204,-0.446,0.887,-0.24,0.52,2.08
318117.500000,-0.203,-0.449,0.886,-0.43,0.79,2.08
318117.500000,-0.203,-0.451,0.887,-0.46,0.98,2.11
318117.500000,-0.206,-0.451,0.89,-0.4,1.34,1.8
318117.515000,-0.207,-0.454,0.892,-0.24,1.56,1.53
318117.531000,-0.212,-0.458,0.897,0.37,1.8,0.95
318117.531000,-0.215,-0.456,0.902,1.22,1.71,0.31
318117.546000,-0.217,-0.452,0.899,1.83,1.22,-0.21
318117.562000,-0.216,-0.449,0.9,2.17,0.89,-0.46
318117.562000,-0.217,-0.447,0.9,2.11,0.98,-0.64
318117.578000,-0.218,-0.443,0.898,1.4,0.95,-0.58
318117.578000,-0.219,-0.444,0.896,-0.06,0.76,-0.21
318117.609000,-0.215,-0.445,0.898,-0.4,0.58,-0.15
318117.609000,-0.215,-0.445,0.898,-0.21,0.52,0.0
318117.609000,-0.216,-0.446,0.895,-0.12,0.58,0.03
318117.625000,-0.214,-0.444,0.89,-0.31,0.61,0.15
318117.640000,-0.212,-0.445,0.889,-0.79,0.76,0.06
318117.656000,-0.213,-0.444,0.885,-1.43,0.61,0.06
318117.656000,-0.213,-0.445,0.885,-1.68,0.64,0.21
318117.671000,-0.211,-0.449,0.887,-1.28,1.37,0.15
318117.671000,-0.215,-0.445,0.888,-1.34,1.86,-0.24
318117.687000,-0.219,-0.446,0.887,-1.71,2.08,-0.21
318117.687000,-0.221,-0.446,0.89,-2.56,2.04,0.12
318117.703000,-0.219,-0.444,0.894,-2.9,2.04,0.24
318117.734000,-0.217,-0.447,0.899,-2.84,1.92,0.12
318117.734000,-0.217,-0.454,0.898,-1.95,1.46,0.18
318117.750000,-0.216,-0.453,0.892,-0.98,1.31,-0.06
318117.750000,-0.212,-0.451,0.887,-0.18,1.43,-0.49
318117.765000,-0.208,-0.449,0.885,-0.06,1.46,-0.95
318117.781000,-0.21,-0.453,0.882,-0.09,1.65,-1.1
318117.781000,-0.211,-0.455,0.886,0.27,2.32,-1.53
318117.796000,-0.212,-0.453,0.89,0.46,2.53,-1.83
318117.812000,-0.213,-0.453,0.892,0.58,2.72,-1.86
318117.812000,-0.213,-0.453,0.895,0.82,2.84,-2.14
318117.828000,-0.215,-0.452,0.898,1.25,2.81,-2.08
318117.828000,-0.216,-0.449,0.9,1.37,2.35,-2.14
318117.843000,-0.215,-0.447,0.898,1.22,1.86,-2.14
318117.859000,-0.213,-0.446,0.898,0.98,1.77,-2.04
318117.859000,-0.215,-0.443,0.897,0.43,1.28,-2.01
318117.875000,-0.209,-0.445,0.896,0.43,1.31,-1.56
318117.890000,-0.207,-0.445,0.895,0.12,1.4,-1.43
318117.890000,-0.21,-0.442,0.894,-0.43,1.4,-1.22
318117.906000,-0.209,-0.446,0.895,-0.4,1.34,-1.01
318117.906000,-0.209,-0.447,0.9,-0.24,1.16,-1.16
318117.921000,-0.21,-0.45,0.902,0.18,1.1,-1.43
318117.937000,-0.21,-0.447,0.903,0.58,0.95,-1.86
318117.953000,-0.211,-0.442,0.898,0.7,0.49,-1.98
318117.953000,-0.21,-0.44,0.895,0.61,0.06,-1.68
318117.968000,-0.21,-0.438,0.894,0.21,-0.06,-1.4
318117.968000,-0.209,-0.439,0.894,-0.18,-0.09,-1.28
318117.984000,-0.211,-0.439,0.892,-0.37,-0.18,-1.16
318118.000000,-0.21,-0.44,0.892,-0.67,-0.43,-0.98
318118.000000,-0.21,-0.441,0.888,-0.82,-0.27,-0.64
318118.015000,-0.209,-0.441,0.892,-1.07,0.18,-0.52
318118.015000,-0.211,-0.44,0.895,-1.19,0.64,-0.43
318118.031000,-0.213,-0.443,0.896,-0.95,0.55,-0.4
318118.046000,-0.213,-0.447,0.897,-0.55,0.27,-0.34
318118.046000,-0.215,-0.446,0.901,-0.4,0.18,-0.46
318118.062000,-0.216,-0.447,0.901,-0.52,-0.27,-0.61
318118.078000,-0.213,-0.448,0.9,-0.64,-0.61,-0.79
318118.093000,-0.213,-0.445,0.896,-0.61,-0.7,-0.85
318118.093000,-0.213,-0.444,0.892,-0.27,-0.85,-0.92
318118.093000,-0.209,-0.438,0.891,-0.09,-0.73,-0.85
318118.109000,-0.21,-0.437,0.892,0.24,-0.4,-0.52
318118.109000,-0.211,-0.434,0.888,0.18,0.09,-0.03
318118.125000,-0.211,-0.436,0.887,-0.43,0.21,0.52
318118.140000,-0.212,-0.441,0.887,-1.4,0.4,0.95
318118.140000,-0.211,-0.441,0.892,-2.5,0.49,1.13
318118.171000,-0.209,-0.443,0.895,-2.66,0.46,1.28
318118.171000,-0.208,-0.448,0.9,-2.14,0.58,1.46
318118.187000,-0.211,-0.447,0.896,-1.4,0.34,1.43
318118.187000,-0.212,-0.445,0.894,-1.13,-0.03,1.43
318118.187000,-0.211,-0.446,0.892,-1.25,-0.18,1.65
318118.203000,-0.213,-0.444,0.889,-2.04,-0.46,1.8
318118.218000,-0.215,-0.446,0.89,-2.9,-0.58,1.8
318118.234000,-0.214,-0.449,0.888,-3.39,-0.61,1.86
318118.234000,-0.216,-0.451,0.887,-3.3,-0.61,1.71
318118.250000,-0.218,-0.457,0.886,-2.84,-0.34,1.5
318118.265000,-0.219,-0.461,0.887,-2.04,-0.06,1.07
318118.265000,-0.221,-0.459,0.884,-1.25,0.12,0.52
318118.265000,-0.221,-0.457,0.879,-0.67,0.43,0.09
318118.296000,-0.223,-0.454,0.876,-0.58,0.89,-0.18
318118.312000,-0.224,-0.456,0.878,-0.73,1.46,-0.43
318118.312000,-0.227,-0.459,0.883,-1.01,2.04,-0.49
318118.328000,-0.228,-0.463,0.884,-1.34,2.2,-0.82
318118.343000,-0.226,-0.466,0.884,-1.1,1.92,-1.28
318118.343000,-0.229,-0.464,0.884,-0.49,1.68,-1.92
318118.359000,-0.229,-0.465,0.88,0.09,1.56,-2.38
318118.359000,-0.228,-0.465,0.879,0.34,1.59,-2.62
318118.375000,-0.229,-0.465,0.872,0.21,1.68,-2.81
318118.390000,-0.226,-0.465,0.872,0.15,1.92,-3.11
318118.390000,-0.227,-0.468,0.874,0.12,2.41,-3.42
318118.406000,-0.227,-0.467,0.874,0.34,2.44,-3.75
318118.421000,-0.224,-0.466,0.871,0.7,2.69,-4.09
318118.421000,-0.222,-0.465,0.87,1.16,3.05,-4.46
318118.437000,-0.222,-0.464,0.87,1.5,3.3,-4.61
318118.453000,-0.221,-0.461,0.871,1.5,3.85,-4.91
318118.453000,-0.221,-0.457,0.873,1.46,4.24,-4.94
318118.468000,-0.22,-0.456,0.877,1.56,4.55,-5.01
318118.468000,-0.219,-0.453,0.881,2.04,5.07,-4.82
318118.484000,-0.223,-0.451,0.884,2.38,5.22,-4.61
318118.500000,-0.224,-0.446,0.887,2.35,5.37,-4.27
318118.500000,-0.221,-0.445,0.889,2.08,5.22,-3.72
318118.515000,-0.22,-0.443,0.891,1.31,5.16,-2.84
318118.531000,-0.222,-0.444,0.895,0.12,5.1,-2.14
318118.531000,-0.219,-0.444,0.9,-1.19,4.7,-1.74
318118.546000,-0.218,-0.445,0.902,-1.77,4.3,-1.19
318118.546000,-0.219,-0.448,0.902,-1.89,3.91,-0.64
318118.562000,-0.216,-0.447,0.901,-1.65,3.39,-0.24
318118.578000,-0.214,-0.443,0.896,-1.53,2.69,0.09
318118.578000,-0.214,-0.441,0.89,-2.04,2.23,0.61
318118.593000,-0.213,-0.44,0.887,-2.66,2.32,1.31
318118.609000,-0.212,-0.441,0.884,-3.14,2.5,1.98
318118.609000,-0.213,-0.439,0.882,-3.72,2.78,2.62
318118.625000,-0.216,-0.442,0.884,-4.3,3.33,3.17
318118.640000,-0.219,-0.447,0.887,-4.55,3.48,3.75
318118.640000,-0.223,-0.449,0.893,-4.61,3.36,4.15
318118.656000,-0.227,-0.454,0.897,-4.43,3.02,4.39
318118.671000,-0.229,-0.459,0.902,-4.09,2.53,4.27
318118.671000,-0.232,-0.461,0.9,-3.63,1.86,4.21
318118.687000,-0.23,-0.464,0.894,-3.33,0.89,4.24
318118.703000,-0.227,-0.462,0.89,-3.36,0.58,4.43
318118.703000,-0.226,-0.463,0.887,-3.75,0.43,4.46
318118.718000,-0.226,-0.462,0.881,-4.18,0.4,4.58
318118.718000,-0.224,-0.463,0.877,-4.43,0.52,4.82
318118.734000,-0.224,-0.465,0.875,-4.64,0.82,5.01
318118.750000,-0.223,-0.466,0.874,-5.04,0.92,5.07
318118.750000,-0.222,-0.471,0.874,-5.71,0.85,5.16
318118.765000,-0.222,-0.474,0.875,-5.86,0.89,5.07
318118.781000,-0.221,-0.475,0.877,-5.68,0.95,4.7
318118.781000,-0.22,-0.476,0.879,-5.07,1.31,4.46
318118.796000,-0.222,-0.477,0.879,-4.12,1.43,4.15
318118.796000,-0.225,-0.478,0.881,-3.33,1.74,3.66
318118.812000,-0.229,-0.477,0.884,-2.99,1.86,3.3
318118.828000,-0.231,-0.478,0.885,-3.2,1.4,3.17
318118.843000,-0.23,-0.48,0.887,-3.51,1.16,2.84
318118.843000,-0.231,-0.479,0.888,-3.78,0.82,2.5
318118.843000,-0.23,-0.477,0.885,-3.66,0.34,2.32
318118.875000,-0.231,-0.476,0.883,-3.72,0.12,2.17
318118.875000,-0.236,-0.476,0.882,-3.69,0.03,2.17
318118.890000,-0.228,-0.479,0.879,-3.17,0.18,2.38
318118.890000,-0.227,-0.477,0.875,-2.99,0.34,2.29
318118.906000,-0.238,-0.47,0.869,-4.18,-0.46,1.71
318118.921000,-0.233,-0.476,0.868,-4.82,-0.21,1.95
318118.921000,-0.23,-0.479,0.864,-5.07,-0.34,1.68
318118.937000,-0.23,-0.48,0.858,-5.1,-0.49,1.77
318118.953000,-0.231,-0.477,0.855,-4.61,-0.37,1.28
318118.953000,-0.232,-0.472,0.853,-4.18,-0.27,0.95
318118.968000,-0.231,-0.476,0.85,-3.48,0.15,1.1
318118.968000,-0.234,-0.476,0.854,-2.72,0.95,0.82
318118.984000,-0.236,-0.474,0.857,-1.8,1.46,0.37
318119.000000,-0.237,-0.473,0.856,-1.01,1.43,0.0
318119.000000,-0.239,-0.475,0.863,0.03,1.5,-0.31
318119.015000,-0.243,-0.472,0.868,0.82,1.74,-0.89
318119.031000,-0.249,-0.467,0.871,0.89,1.22,-1.22
318119.031000,-0.247,-0.467,0.875,1.1,0.92,-1.22
318119.046000,-0.246,-0.47,0.879,1.34,1.04,-1.01
318119.062000,-0.246,-0.468,0.883,1.25,1.16,-0.95
318119.062000,-0.248,-0.466,0.885,1.13,1.1,-1.07
318119.078000,-0.247,-0.466,0.884,1.07,0.4,-1.07
318119.093000,-0.244,-0.469,0.881,0.98,-0.46,-1.01
318119.093000,-0.241,-0.467,0.876,1.13,-1.01,-0.85
318119.109000,-0.24,-0.464,0.87,1.37,-1.34,-1.04
318119.109000,-0.235,-0.463,0.865,1.22,-1.22,-0.89
318119.125000,-0.231,-0.464,0.863,1.07,-0.61,-0.52
318119.140000,-0.229,-0.464,0.862,1.16,-0.12,-0.43
318119.140000,-0.228,-0.46,0.858,1.4,0.24,-0.4
318119.156000,-0.227,-0.458,0.856,1.56,0.82,-0.06
318119.171000,-0.226,-0.46,0.858,0.67,2.26,0.98
318119.171000,-0.226,-0.462,0.864,0.34,2.93,1.22
318119.187000,-0.228,-0.467,0.874,-0.12,3.39,1.25
318119.187000,-0.233,-0.471,0.882,-0.61,2.93,1.65
318119.203000,-0.237,-0.473,0.893,-1.28,2.23,2.11
318119.218000,-0.238,-0.48,0.896,-2.04,1.4,2.2
318119.218000,-0.237,-0.491,0.897,-3.02,0.27,1.86
318119.234000,-0.232,-0.493,0.891,-3.57,-0.79,1.43
318119.234000,-0.227,-0.494,0.885,-3.63,-1.53,0.76
318119.250000,-0.225,-0.495,0.878,-3.36,-1.56,0.24
318119.265000,-0.224,-0.498,0.875,-2.29,-1.25,-0.49
318119.281000,-0.221,-0.496,0.869,-1.53,-1.04,-1.31
318119.281000,-0.224,-0.494,0.864,-0.67,-0.67,-2.26
318119.296000,-0.226,-0.49,0.866,-0.03,-0.18,-3.02
318119.312000,-0.227,-0.493,0.871,0.7,0.46,-3.54
318119.312000,-0.237,-0.491,0.876,0.95,0.61,-4.39
318119.328000,-0.238,-0.489,0.881,1.01,0.4,-5.19
318119.328000,-0.239,-0.488,0.884,1.46,0.12,-5.77
318119.343000,-0.241,-0.482,0.884,2.11,-0.4,-6.29
318119.343000,-0.244,-0.48,0.885,2.69,-1.01,-6.26
318119.359000,-0.243,-0.476,0.878,2.99,-1.62,-6.35
318119.375000,-0.24,-0.471,0.869,2.9,-2.14,-6.32
318119.375000,-0.237,-0.468,0.863,2.41,-2.38,-6.1
318119.390000,-0.235,-0.466,0.859,1.53,-2.17,-5.65
318119.390000,-0.233,-0.467,0.852,0.73,-1.59,-5.22
318119.406000,-0.232,-0.472,0.855,0.27,-0.95,-4.88
318119.406000,-0.232,-0.473,0.857,0.27,-0.58,-4.7
318119.437000,-0.232,-0.471,0.857,0.61,-0.43,-4.73
318119.453000,-0.233,-0.471,0.859,1.37,-0.24,-4.58
318119.453000,-0.234,-0.471,0.859,1.92,-0.37,-4.58
318119.468000,-0.232,-0.467,0.86,2.04,-0.4,-4.73
318119.484000,-0.23,-0.462,0.856,2.11,-0.4,-4.39
318119.484000,-0.23,-0.463,0.856,1.68,0.06,-3.78
318119.500000,-0.228,-0.465,0.86,1.19,0.92,-3.14
318119.500000,-0.227,-0.465,0.864,0.85,1.59,-2.69
318119.515000,-0.229,-0.467,0.87,0.85,1.8,-2.62
318119.531000,-0.228,-0.467,0.872,1.16,1.56,-2.41
318119.531000,-0.227,-0.471,0.868,1.07,1.46,-2.04
318119.531000,-0.228,-0.471,0.87,0.64,1.65,-1.8
318119.562000,-0.228,-0.474,0.876,0.21,1.71,-1.8
318119.562000,-0.225,-0.477,0.879,-0.18,1.65,-1.71
318119.578000,-0.226,-0.477,0.878,-0.24,1.31,-1.71
318119.578000,-0.224,-0.479,0.878,0.49,1.25,-1.74
318119.593000,-0.222,-0.478,0.878,1.28,1.77,-1.77
318119.609000,-0.224,-0.475,0.877,1.28,1.92,-1.77
318119.625000,-0.221,-0.473,0.876,1.16,2.2,-1.43
318119.625000,-0.217,-0.474,0.876,0.82,2.44,-1.16
318119.640000,-0.219,-0.475,0.881,0.03,2.78,-0.76
318119.640000,-0.219,-0.48,0.883,-1.01,2.66,-0.34
318119.656000,-0.219,-0.483,0.887,-2.04,2.17,-0.31
318119.671000,-0.221,-0.485,0.891,-2.56,1.22,-0.27
318119.671000,-0.216,-0.488,0.887,-2.38,0.34,-0.21
318119.687000,-0.214,-0.492,0.883,-1.74,0.0,-0.21
318119.703000,-0.214,-0.489,0.88,-1.53,-0.15,-0.46
318119.703000,-0.215,-0.487,0.877,-1.59,-0.06,-0.73
318119.718000,-0.218,-0.489,0.875,-1.71,0.18,-0.92
318119.718000,-0.221,-0.491,0.877,-2.11,0.27,-1.22
318119.734000,-0.224,-0.49,0.877,-2.2,0.21,-1.46
318119.750000,-0.225,-0.492,0.879,-2.32,0.06,-1.83
318119.750000,-0.228,-0.49,0.881,-2.11,-0.27,-2.26
318119.765000,-0.228,-0.489,0.881,-1.31,-0.92,-2.41
318119.781000,-0.226,-0.484,0.877,-0.4,-1.46,-2.56
318119.781000,-0.227,-0.479,0.87,0.24,-1.8,-2.69
318119.796000,-0.225,-0.472,0.864,0.7,-1.56,-2.5
318119.812000,-0.226,-0.466,0.858,0.4,-0.98,-2.14
318119.812000,-0.225,-0.464,0.855,-0.37,-0.61,-1.56
318119.828000,-0.224,-0.463,0.851,-1.28,-0.52,-1.16
318119.843000,-0.227,-0.461,0.85,-1.5,-0.37,-0.67
318119.843000,-0.228,-0.462,0.85,-1.74,0.18,-0.21
318119.859000,-0.228,-0.461,0.85,-1.74,0.73,0.18
318119.859000,-0.228,-0.462,0.851,-1.59,1.37,0.67
318119.875000,-0.228,-0.466,0.852,-1.43,2.17,1.07
318119.890000,-0.231,-0.463,0.856,-1.65,2.72,1.28
318119.890000,-0.233,-0.464,0.855,-2.29,3.08,1.62
318119.906000,-0.234,-0.469,0.856,-2.81,3.39,2.11
318119.921000,-0.237,-0.474,0.863,-3.08,3.66,2.26
318119.921000,-0.238,-0.478,0.869,-2.81,3.63,2.17
318119.921000,-0.24,-0.482,0.872,-2.26,3.63,2.04
318119.953000,-0.24,-0.483,0.868,-1.77,3.54,1.98
318119.953000,-0.242,-0.485,0.871,-1.13,3.69,1.89
318119.968000,-0.24,-0.487,0.872,-0.67,3.42,1.74
318119.984000,-0.24,-0.486,0.87,-0.85,2.87,1.46
318119.984000,-0.239,-0.484,0.866,-1.01,2.5,1.22
318120.000000,-0.238,-0.482,0.863,-1.13,2.04,1.22
318120.000000,-0.232,-0.482,0.861,-1.01,1.8,1.34
318120.015000,-0.229,-0.482,0.859,-0.49,1.74,1.46
318120.015000,-0.232,-0.479,0.851,-0.46,1.8,1.22
318120.031000,-0.23,-0.48,0.851,-0.58,2.32,1.22
318120.031000,-0.232,-0.48,0.852,-0.58,2.75,1.28
318120.046000,-0.235,-0.48,0.853,-0.76,2.84,1.19
318120.062000,-0.24,-0.484,0.854,-0.61,3.14,1.22
318120.062000,-0.245,-0.487,0.859,-0.46,3.05,0.79
318120.078000,-0.246,-0.487,0.86,0.15,2.99,0.34
318120.093000,-0.248,-0.489,0.866,1.46,3.33,0.0
318120.093000,-0.248,-0.489,0.869,3.05,3.81,-0.46
318120.109000,-0.246,-0.489,0.87,4.03,4.21,-0.92
318120.109000,-0.245,-0.487,0.868,4.15,4.85,-1.16
318120.140000,-0.246,-0.489,0.882,3.57,4.94,-1.4
318120.156000,-0.242,-0.5,0.886,3.11,3.97,-1.53
318120.156000,-0.244,-0.506,0.886,3.11,3.17,-2.29
318120.171000,-0.242,-0.507,0.885,3.91,2.47,-3.14
318120.171000,-0.24,-0.507,0.882,4.33,1.34,-3.85
318120.171000,-0.235,-0.511,0.872,4.85,0.55,-4.61
318120.187000,-0.234,-0.51,0.867,5.13,0.55,-5.52
318120.187000,-0.235,-0.509,0.868,5.37,0.61,-6.5
318120.218000,-0.239,-0.508,0.867,5.98,0.64,-7.05
318120.218000,-0.231,-0.511,0.865,7.39,1.31,-7.54
318120.218000,-0.23,-0.507,0.859,8.12,1.89,-8.42
318120.250000,-0.238,-0.502,0.856,6.68,1.68,-9.64
318120.250000,-0.241,-0.502,0.858,4.91,1.43,-10.44
318120.265000,-0.236,-0.507,0.862,4.67,1.89,-10.53
318120.265000,-0.232,-0.51,0.865,6.23,2.56,-10.8
318120.296000,-0.234,-0.5,0.862,7.9,2.44,-11.87
318120.296000,-0.235,-0.492,0.855,8.67,2.23,-12.76
318120.296000,-0.237,-0.485,0.848,8.58,2.32,-13.25
318120.296000,-0.238,-0.481,0.848,8.03,2.9,-13.03
318120.312000,-0.238,-0.48,0.854,7.57,3.81,-12.57
318120.328000,-0.24,-0.477,0.857,6.84,4.33,-12.97
318120.328000,-0.246,-0.475,0.86,6.07,4.61,-13.46
318120.359000,-0.245,-0.477,0.865,5.68,4.61,-13.64
318120.359000,-0.244,-0.477,0.865,6.26,4.79,-13.64
318120.375000,-0.245,-0.474,0.866,6.87,5.01,-13.98
318120.390000,-0.244,-0.472,0.871,7.66,5.68,-14.19
318120.406000,-0.243,-0.468,0.869,8.48,5.95,-14.34
318120.406000,-0.243,-0.465,0.871,9.31,6.29,-14.16
318120.421000,-0.243,-0.463,0.875,9.8,6.78,-14.01
318120.421000,-0.24,-0.459,0.874,9.61,6.71,-13.95
318120.437000,-0.237,-0.454,0.875,9.0,6.65,-13.7
318120.437000,-0.232,-0.457,0.879,8.48,6.96,-13.31
318120.453000,-0.23,-0.456,0.881,8.48,7.32,-13.09
318120.468000,-0.232,-0.451,0.887,8.7,7.26,-12.7
318120.468000,-0.231,-0.453,0.89,8.79,7.02,-12.33
318120.484000,-0.227,-0.452,0.887,8.67,6.74,-11.87
318120.500000,-0.225,-0.447,0.886,8.12,6.53,-11.38
318120.500000,-0.227,-0.443,0.89,6.74,6.41,-10.71
318120.515000,-0.223,-0.45,0.893,5.65,6.38,-9.8
318120.515000,-0.22,-0.454,0.892,5.04,6.32,-9.25
318120.531000,-0.226,-0.452,0.893,4.24,5.86,-8.97
318120.546000,-0.225,-0.453,0.893,3.02,5.25,-8.67
318120.546000,-0.223,-0.459,0.894,2.35,5.04,-8.03
318120.562000,-0.222,-0.461,0.897,1.89,4.91,-7.72
318120.578000,-0.22,-0.463,0.896,1.8,4.85,-7.32
318120.578000,-0.219,-0.459,0.892,1.43,4.46,-7.35
318120.593000,-0.221,-0.46,0.89,0.82,3.94,-7.2
318120.593000,-0.22,-0.464,0.894,0.03,3.72,-7.02
318120.609000,-0.222,-0.465,0.893,-0.27,3.42,-6.78
318120.625000,-0.221,-0.46,0.89,-0.37,2.81,-6.84
318120.625000,-0.221,-0.46,0.888,-0.4,2.41,-6.68
318120.640000,-0.218,-0.461,0.884,-0.15,2.66,-6.1
318120.656000,-0.221,-0.458,0.881,-0.31,2.84,-5.92
318120.671000,-0.223,-0.454,0.878,-0.95,2.75,-5.74
318120.671000,-0.222,-0.455,0.876,-1.46,2.78,-4.91
318120.671000,-0.22,-0.456,0.879,-1.74,2.84,-4.24
318120.687000,-0.22,-0.459,0.882,-1.71,3.08,-3.91
318120.703000,-0.222,-0.458,0.882,-1.53,3.08,-3.63
318120.703000,-0.221,-0.458,0.881,-1.83,2.84,-3.14
318120.718000,-0.219,-0.461,0.883,-1.83,2.9,-2.56
318120.734000,-0.22,-0.463,0.886,-1.89,2.93,-2.17
318120.734000,-0.219,-0.466,0.89,-1.62,2.04,-1.98
318120.750000,-0.22,-0.464,0.888,-1.8,1.46,-2.08
318120.750000,-0.216,-0.461,0.888,-1.89,0.98,-1.77
318120.765000,-0.214,-0.463,0.887,-1.34,0.92,-1.98
318120.781000,-0.214,-0.461,0.888,-0.55,0.79,-2.32
318120.796000,-0.216,-0.451,0.883,-0.06,0.18,-2.17
318120.812000,-0.213,-0.45,0.881,0.21,-0.09,-1.77
318120.812000,-0.216,-0.448,0.886,0.31,-0.15,-1.4
318120.812000,-0.221,-0.447,0.887,0.21,-0.24,-1.25
318120.828000,-0.22,-0.445,0.888,0.18,-0.31,-0.64
318120.828000,-0.219,-0.445,0.888,0.24,-0.85,-0.03
318120.859000,-0.218,-0.445,0.891,0.03,-1.16,0.31
318120.859000,-0.218,-0.445,0.891,0.03,-1.71,0.79
318120.859000,-0.217,-0.445,0.89,-0.06,-2.11,1.37
318120.875000,-0.216,-0.446,0.889,0.03,-2.38,1.68
318120.906000,-0.215,-0.447,0.889,0.27,-2.59,2.04
318120.906000,-0.214,-0.447,0.887,0.46,-2.93,2.38
318120.921000,-0.212,-0.447,0.884,0.46,-3.14,2.56
318120.921000,-0.212,-0.446,0.885,0.49,-3.27,3.02
318120.921000,-0.212,-0.448,0.884,0.49,-3.33,3.42
318120.937000,-0.211,-0.448,0.885,0.58,-3.33,3.72
318120.937000,-0.211,-0.447,0.885,0.61,-3.39,4.03
318120.953000,-0.21,-0.447,0.882,0.52,-3.54,4.43
318120.984000,-0.209,-0.448,0.885,0.4,-3.57,4.88
318120.984000,-0.209,-0.449,0.885,0.37,-3.36,5.22
318121.000000,-0.212,-0.449,0.887,0.21,-3.51,5.52
318121.000000,-0.214,-0.446,0.886,0.37,-3.6,5.92
318121.015000,-0.214,-0.445,0.889,0.37,-3.63,6.32
318121.031000,-0.215,-0.446,0.889,0.21,-3.78,6.81
318121.031000,-0.217,-0.447,0.888,-0.21,-3.94,7.2
318121.046000,-0.216,-0.447,0.89,-0.43,-4.24,7.54
318121.062000,-0.217,-0.45,0.889,-0.67,-4.46,7.75
318121.062000,-0.218,-0.451,0.891,-0.85,-4.67,8.03
318121.078000,-0.22,-0.452,0.891,-1.31,-5.01,8.09
318121.078000,-0.222,-0.452,0.89,-1.65,-5.31,8.3
318121.093000,-0.219,-0.457,0.887,-1.62,-5.25,8.76
318121.109000,-0.222,-0.458,0.885,-1.5,-5.37,8.7
318121.109000,-0.225,-0.461,0.887,-1.77,-5.52,8.55
318121.125000,-0.226,-0.466,0.89,-1.43,-5.4,8.42
318121.140000,-0.226,-0.467,0.889,-1.19,-5.74,8.15
318121.140000,-0.226,-0.467,0.888,-0.7,-6.07,7.66
318121.156000,-0.227,-0.463,0.883,-0.37,-6.16,7.42
318121.156000,-0.228,-0.46,0.878,-0.43,-6.07,7.29
318121.171000,-0.227,-0.459,0.876,-0.55,-5.68,7.2
318121.187000,-0.228,-0.458,0.875,-0.61,-5.28,7.2
318121.187000,-0.231,-0.457,0.871,-0.7,-4.76,7.23
318121.203000,-0.234,-0.456,0.873,-0.92,-4.61,7.39
318121.203000,-0.236,-0.458,0.875,-0.95,-4.49,7.51
318121.218000,-0.236,-0.46,0.876,-0.85,-4.27,7.6
318121.234000,-0.236,-0.463,0.877,-0.92,-4.21,7.63
318121.234000,-0.235,-0.466,0.879,-0.92,-4.36,7.57
318121.250000,-0.235,-0.465,0.879,-1.01,-4.46,7.39
318121.265000,-0.234,-0.467,0.874,-1.37,-4.55,7.29
318121.281000,-0.233,-0.469,0.871,-1.56,-4.33,7.17
318121.281000,-0.233,-0.472,0.872,-1.59,-4.03,6.87
318121.281000,-0.235,-0.475,0.871,-1.56,-4.03,6.53
318121.312000,-0.23,-0.478,0.87,-1.13,-3.75,6.13
318121.312000,-0.23,-0.48,0.87,-0.4,-3.33,5.65
318121.328000,-0.231,-0.478,0.869,0.18,-2.99,5.04
318121.328000,-0.231,-0.475,0.867,1.01,-2.59,4.64
318121.343000,-0.233,-0.474,0.865,1.28,-2.14,4.3
318121.343000,-0.235,-0.472,0.867,0.95,-1.65,4.18
318121.359000,-0.238,-0.471,0.871,0.24,-1.16,4.03
318121.359000,-0.24,-0.472,0.876,-0.37,-0.82,4.06
318121.390000,-0.237,-0.476,0.875,-0.89,-0.79,4.09
318121.390000,-0.234,-0.479,0.876,-0.82,-0.7,3.94
318121.390000,-0.232,-0.48,0.875,-0.31,-0.73,3.63
318121.406000,-0.228,-0.478,0.871,0.49,-0.7,3.33
318121.421000,-0.226,-0.476,0.869,0.85,-0.4,3.05
318121.421000,-0.224,-0.475,0.868,0.79,0.03,2.69
318121.437000,-0.223,-0.474,0.868,0.76,0.52,2.26
318121.453000,-0.222,-0.47,0.871,0.64,1.07,1.86
318121.468000,-0.223,-0.467,0.875,0.73,1.43,1.59
318121.468000,-0.225,-0.467,0.881,0.92,1.74,1.16
318121.484000,-0.226,-0.462,0.887,1.22,1.83,0.92
318121.484000,-0.229,-0.46,0.89,1.62,1.8,0.67
318121.484000,-0.231,-0.46,0.893,1.62,1.68,0.37
318121.500000,-0.232,-0.456,0.892,1.43,1.16,0.27
318121.531000,-0.231,-0.451,0.892,1.04,0.76,0.4
318121.531000,-0.229,-0.451,0.893,0.55,0.67,0.58
318121.546000,-0.228,-0.449,0.895,0.03,0.67,0.64
318121.562000,-0.228,-0.45,0.894,-0.37,0.49,0.67
318121.562000,-0.228,-0.453,0.893,-0.52,0.24,0.73
318121.578000,-0.227,-0.452,0.893,-0.58,0.09,0.7
318121.578000,-0.226,-0.448,0.887,-0.67,-0.37,0.95
318121.593000,-0.224,-0.45,0.884,-1.13,-0.46,1.4
318121.609000,-0.225,-0.451,0.879,-1.77,-0.4,1.43
318121.609000,-0.224,-0.454,0.877,-2.26,-0.18,1.53
318121.625000,-0.223,-0.459,0.878,-2.35,0.18,1.71
318121.640000,-0.224,-0.463,0.878,-2.17,0.37,1.68
318121.656000,-0.226,-0.464,0.875,-1.83,0.43,1.37
318121.656000,-0.228,-0.465,0.872,-1.68,0.58,1.07
318121.671000,-0.229,-0.465,0.871,-1.77,0.73,1.01
318121.671000,-0.23,-0.469,0.871,-1.77,0.76,0.89
318121.687000,-0.231,-0.469,0.871,-1.74,1.04,0.79
318121.687000,-0.232,-0.469,0.874,-1.46,1.28,0.76
318121.703000,-0.234,-0.472,0.875,-1.07,1.62,0.58
318121.718000,-0.233,-0.471,0.872,-0.98,1.8,0.58
318121.718000,-0.232,-0.471,0.876,-0.64,2.08,0.52
318121.734000,-0.231,-0.474,0.875,-0.64,1.8,0.37
318121.734000,-0.232,-0.473,0.877,-0.34,1.8,0.06
318121.750000,-0.231,-0.472,0.877,0.27,1.95,-0.34
318121.765000,-0.229,-0.469,0.878,0.52,1.77,-0.49
318121.765000,-0.227,-0.469,0.876,0.67,1.8,-0.64
318121.781000,-0.226,-0.465,0.873,0.61,2.04,-0.79
318121.796000,-0.227,-0.459,0.876,0.43,2.41,-0.73
318121.796000,-0.227,-0.455,0.88,0.18,2.69,-0.55
318121.812000,-0.227,-0.454,0.884,0.03,2.81,-0.37
318121.812000,-0.23,-0.453,0.888,0.09,2.72,-0.21
318121.828000,-0.227,-0.453,0.891,0.27,2.35,-0.21
318121.843000,-0.226,-0.45,0.893,0.43,1.86,-0.21
318121.843000,-0.225,-0.447,0.891,0.24,1.31,-0.03
318121.859000,-0.224,-0.445,0.886,-0.06,1.1,0.34
318121.875000,-0.222,-0.443,0.887,-0.46,1.19,0.55
318121.890000,-0.222,-0.441,0.887,-0.61,1.22,0.85
318121.890000,-0.22,-0.441,0.887,-0.73,1.4,1.22
318121.906000,-0.223,-0.441,0.887,-1.28,1.59,1.68
318121.921000,-0.226,-0.445,0.893,-1.56,1.31,1.92
318121.921000,-0.226,-0.45,0.898,-1.31,0.92,1.98
318121.937000,-0.227,-0.452,0.899,-0.98,0.27,1.74
318121.937000,-0.227,-0.451,0.898,-0.06,-0.34,1.37
318121.953000,-0.224,-0.449,0.892,0.64,-0.89,1.28
318121.968000,-0.224,-0.444,0.887,1.07,-1.04,1.31
318121.984000,-0.224,-0.444,0.886,1.16,-0.73,1.53
318121.984000,-0.223,-0.444,0.885,0.95,-0.37,1.92
318122.000000,-0.227,-0.444,0.881,0.12,-0.37,2.29
318122.000000,-0.228,-0.445,0.881,-0.98,-0.37,2.69
318122.015000,-0.228,-0.45,0.885,-1.77,-0.52,3.23
318122.031000,-0.229,-0.455,0.888,-2.23,-0.79,3.66
318122.031000,-0.23,-0.46,0.89,-2.32,-0.95,3.88
318122.046000,-0.232,-0.462,0.89,-2.04,-1.22,3.81
318122.062000,-0.232,-0.464,0.888,-1.59,-1.86,3.66
318122.062000,-0.229,-0.463,0.884,-1.13,-2.41,3.72
318122.078000,-0.225,-0.463,0.873,-1.01,-2.66,3.85
318122.093000,-0.226,-0.461,0.879,-1.13,-2.56,3.91
318122.093000,-0.224,-0.46,0.867,-0.98,-2.44,4.03
318122.109000,-0.223,-0.454,0.867,-1.37,-1.98,4.33
318122.109000,-0.225,-0.456,0.871,-1.37,-0.98,4.82
318122.125000,-0.227,-0.458,0.872,-1.98,-0.52,5.16
318122.140000,-0.23,-0.463,0.875,-2.17,-0.09,5.22
318122.140000,-0.232,-0.469,0.883,-2.38,0.4,5.22
318122.156000,-0.235,-0.471,0.889,-2.56,0.37,5.13
318122.171000,-0.237,-0.477,0.894,-2.38,-0.03,4.73
318122.171000,-0.24,-0.481,0.896,-2.2,-0.49,4.15
318122.187000,-0.239,-0.483,0.893,-2.08,-1.07,3.57
318122.203000,-0.238,-0.483,0.888,-2.01,-1.77,2.87
318122.203000,-0.238,-0.482,0.882,-1.83,-2.29,2.17
318122.218000,-0.237,-0.483,0.874,-1.77,-2.32,1.71
318122.234000,-0.239,-0.485,0.87,-1.89,-2.14,0.95
318122.234000,-0.239,-0.485,0.866,-1.65,-1.53,0.31
318122.250000,-0.239,-0.486,0.866,-0.98,-0.95,-0.4
318122.265000,-0.241,-0.485,0.869,-0.31,-0.64,-1.25
318122.265000,-0.241,-0.481,0.865,0.64,-0.46,-2.08
318122.265000,-0.243,-0.475,0.865,1.1,-0.4,-2.72
318122.281000,-0.243,-0.472,0.863,1.07,-0.24,-3.05
318122.296000,-0.243,-0.469,0.859,0.85,0.0,-3.27
318122.296000,-0.242,-0.466,0.86,0.52,0.34,-3.48
318122.312000,-0.243,-0.465,0.862,0.27,0.89,-3.94
318122.328000,-0.241,-0.464,0.865,0.76,0.92,-4.12
318122.328000,-0.242,-0.461,0.866,1.37,0.92,-4.24
318122.343000,-0.242,-0.459,0.864,1.86,1.19,-4.39
318122.359000,-0.241,-0.457,0.866,2.14,1.34,-4.55
318122.359000,-0.241,-0.453,0.865,2.56,1.53,-4.61
318122.375000,-0.24,-0.449,0.872,3.23,1.98,-4.79
318122.390000,-0.238,-0.445,0.876,4.06,2.11,-4.94
318122.390000,-0.238,-0.443,0.875,4.52,2.11,-4.85
318122.406000,-0.239,-0.439,0.877,4.52,2.14,-4.67
318122.406000,-0.239,-0.438,0.881,4.39,2.08,-4.43
318122.421000,-0.237,-0.438,0.885,3.97,2.01,-4.0
318122.421000,-0.238,-0.441,0.89,3.81,1.59,-3.39
318122.437000,-0.239,-0.445,0.891,3.94,1.25,-2.9
318122.453000,-0.236,-0.443,0.889,3.94,0.92,-2.47
318122.453000,-0.233,-0.443,0.886,4.09,0.31,-1.77
318122.468000,-0.23,-0.445,0.881,3.94,0.27,-1.19
318122.484000,-0.226,-0.449,0.879,3.51,0.34,-0.55
318122.484000,-0.223,-0.454,0.879,3.11,0.7,0.06
318122.500000,-0.22,-0.459,0.88,2.93,1.04,0.4
318122.500000,-0.22,-0.464,0.884,2.93,1.16,0.55
318122.515000,-0.22,-0.469,0.887,2.99,1.28,0.43
318122.531000,-0.221,-0.471,0.889,3.23,0.92,0.37
318122.546000,-0.221,-0.471,0.892,3.33,0.58,0.4
318122.562000,-0.22,-0.474,0.894,3.36,0.49,0.31
318122.562000,-0.219,-0.47,0.894,3.23,0.27,0.0
318122.578000,-0.22,-0.471,0.896,3.08,-0.12,-0.09
318122.593000,-0.22,-0.472,0.9,2.69,-0.4,-0.24
318122.593000,-0.22,-0.468,0.9,2.29,-0.82,-0.58
318122.609000,-0.218,-0.467,0.899,2.14,-1.4,-0.79
318122.609000,-0.216,-0.463,0.897,2.26,-1.62,-1.07
318122.625000,-0.217,-0.458,0.894,2.32,-1.83,-1.31
318122.625000,-0.217,-0.453,0.891,2.5,-1.95,-1.28
318122.640000,-0.215,-0.449,0.889,2.38,-2.11,-1.25
318122.656000,-0.218,-0.446,0.891,2.2,-2.11,-1.37
318122.656000,-0.218,-0.442,0.89,2.14,-2.01,-1.37
318122.671000,-0.219,-0.439,0.89,2.17,-2.26,-1.28
318122.687000,-0.221,-0.437,0.889,2.38,-2.32,-1.04
318122.703000,-0.223,-0.435,0.884,2.44,-2.26,-0.92
318122.703000,-0.225,-0.431,0.886,2.01,-2.08,-0.7
318122.718000,-0.228,-0.428,0.888,1.46,-1.86,-0.34
318122.718000,-0.229,-0.428,0.887,0.98,-1.89,0.15
318122.734000,-0.232,-0.428,0.888,0.46,-2.08,0.58
318122.750000,-0.233,-0.426,0.887,0.0,-2.29,0.82
318122.750000,-0.231,-0.427,0.886,0.4,-2.01,1.4
318122.765000,-0.233,-0.429,0.884,0.64,-1.74,1.92
318122.781000,-0.235,-0.428,0.884,0.52,-1.25,2.14
318122.781000,-0.238,-0.431,0.886,0.4,-1.01,2.69
318122.796000,-0.236,-0.435,0.886,-0.06,-0.98,3.14
318122.796000,-0.234,-0.441,0.883,-0.21,-1.1,3.51
318122.812000,-0.229,-0.442,0.883,0.06,-1.04,3.75
318122.828000,-0.228,-0.444,0.881,0.49,-0.95,3.91
318122.843000,-0.227,-0.446,0.878,0.61,-0.95,4.03
318122.843000,-0.223,-0.447,0.874,0.61,-1.04,4.39
318122.843000,-0.218,-0.449,0.873,0.73,-0.4,4.82
318122.859000,-0.219,-0.453,0.874,0.43,0.18,4.85
318122.859000,-0.216,-0.458,0.881,0.21,0.58,4.85
318122.890000,-0.218,-0.465,0.886,0.55,0.76,4.55
318122.890000,-0.219,-0.464,0.891,1.04,0.43,3.78
318122.906000,-0.222,-0.463,0.893,1.56,0.0,3.17
318122.921000,-0.221,-0.457,0.892,2.35,-0.37,2.56
318122.937000,-0.219,-0.452,0.889,2.84,-0.31,2.35
318122.937000,-0.223,-0.444,0.888,2.69,-0.03,2.29
318122.937000,-0.224,-0.445,0.894,2.38,0.37,2.5
318122.953000,-0.226,-0.447,0.901,2.29,0.4,2.29
318122.968000,-0.227,-0.445,0.904,2.59,-0.31,1.95
318122.968000,-0.227,-0.44,0.901,3.2,-1.4,1.77
318122.984000,-0.227,-0.435,0.89,3.85,-1.95,1.8
318123.000000,-0.221,-0.427,0.88,3.66,-2.08,1.74
318123.015000,-0.219,-0.42,0.876,3.27,-1.71,1.89
318123.015000,-0.218,-0.418,0.878,2.62,-0.85,2.32
318123.031000,-0.218,-0.417,0.884,2.47,0.46,2.99
318123.031000,-0.221,-0.413,0.884,2.38,0.64,3.3
318123.046000,-0.222,-0.413,0.888,2.23,0.52,3.94
318123.062000,-0.223,-0.415,0.895,2.01,0.52,4.33
318123.062000,-0.223,-0.416,0.903,1.98,0.82,4.73
318123.078000,-0.225,-0.423,0.912,2.75,1.25,5.1
318123.078000,-0.231,-0.419,0.92,3.39,1.28,4.91
318123.093000,-0.237,-0.417,0.92,3.39,0.73,5.1
318123.109000,-0.236,-0.42,0.924,2.17,0.12,5.65
318123.109000,-0.237,-0.425,0.923,0.09,-0.67,6.23
318123.125000,-0.241,-0.429,0.921,-2.38,-1.59,6.2
318123.140000,-0.238,-0.436,0.923,-3.63,-1.98,6.13
318123.140000,-0.235,-0.445,0.921,-3.78,-2.59,5.92
318123.156000,-0.215,-0.454,0.909,-2.81,-1.71,5.55
318123.171000,-0.239,-0.433,0.897,-5.65,-3.94,3.33
318123.171000,-0.272,-0.444,0.903,-6.29,-4.36,3.45
318123.187000,-0.219,-0.468,0.91,-4.94,-4.21,5.8
318123.187000,-0.185,-0.491,0.908,2.47,0.67,6.53
318123.203000,-0.241,-0.427,0.876,-1.25,-3.27,1.13
318123.218000,-0.242,-0.446,0.857,-6.81,-4.49,1.16
318123.218000,-0.233,-0.474,0.884,-9.98,-3.69,2.2
318123.234000,-0.245,-0.473,0.895,-9.83,-3.48,2.59
318123.234000,-0.265,-0.46,0.898,-6.78,-4.46,2.32
318123.250000,-0.234,-0.469,0.901,-0.61,-2.78,2.78
318123.265000,-0.239,-0.455,0.876,3.11,-3.02,1.25
318123.265000,-0.258,-0.438,0.86,2.35,-3.48,0.15
318123.281000,-0.255,-0.439,0.855,0.24,-3.14,0.67
318123.281000,-0.244,-0.441,0.861,-1.77,-1.83,0.92
318123.296000,-0.241,-0.445,0.868,-2.44,-0.82,0.61
318123.312000,-0.24,-0.442,0.872,-1.37,-0.4,-0.12
318123.312000,-0.238,-0.437,0.867,0.85,0.09,-0.55
318123.343000,-0.24,-0.431,0.86,1.89,0.0,-0.58
318123.343000,-0.234,-0.428,0.859,2.93,1.22,-0.12
318123.343000,-0.234,-0.416,0.862,3.45,2.32,0.15
318123.375000,-0.233,-0.413,0.864,2.75,3.39,0.89
318123.375000,-0.232,-0.419,0.871,1.83,4.97,1.98
318123.390000,-0.233,-0.423,0.876,1.22,6.47,2.59
318123.390000,-0.237,-0.423,0.885,0.34,7.11,3.14
318123.406000,-0.237,-0.432,0.891,-1.07,7.11,4.0
318123.421000,-0.235,-0.439,0.897,-3.23,7.29,4.39
318123.421000,-0.232,-0.448,0.905,-5.4,7.29,4.36
318123.437000,-0.236,-0.456,0.909,-7.26,6.59,4.3
318123.453000,-0.233,-0.467,0.911,-8.12,5.98,4.12
318123.468000,-0.231,-0.475,0.912,-8.18,5.89,3.51
318123.468000,-0.232,-0.479,0.913,-8.51,5.62,2.56
318123.484000,-0.235,-0.481,0.909,-8.91,4.85,1.46
318123.484000,-0.23,-0.485,0.904,-9.16,4.27,0.52
318123.484000,-0.227,-0.488,0.896,-9.22,4.27,-0.46
318123.500000,-0.229,-0.486,0.887,-10.41,4.73,-1.8
318123.515000,-0.24,-0.489,0.899,-12.27,4.7,-3.11
318123.531000,-0.244,-0.496,0.893,-13.28,4.15,-4.15
318123.531000,-0.251,-0.491,0.898,-12.33,4.15,-5.07
318123.546000,-0.256,-0.49,0.899,-9.67,3.69,-5.34
318123.562000,-0.253,-0.489,0.896,-6.13,3.14,-5.68
318123.562000,-0.25,-0.485,0.886,-2.72,2.93,-6.74
318123.578000,-0.252,-0.476,0.874,-1.1,2.41,-7.78
318123.578000,-0.248,-0.472,0.863,-0.64,2.17,-8.42
318123.609000,-0.245,-0.468,0.855,-0.64,2.08,-9.09
318123.609000,-0.242,-0.462,0.845,-0.31,2.32,-9.77
318123.609000,-0.239,-0.458,0.84,0.82,3.17,-10.38
318123.625000,-0.241,-0.455,0.837,2.23,3.94,-10.56
318123.640000,-0.242,-0.451,0.833,3.72,4.39,-10.9
318123.640000,-0.233,-0.446,0.829,5.58,5.34,-11.11
318123.656000,-0.233,-0.441,0.823,7.08,6.47,-11.2
318123.671000,-0.232,-0.44,0.826,6.44,7.6,-11.32
318123.671000,-0.232,-0.445,0.833,4.73,8.64,-11.32
318123.687000,-0.232,-0.449,0.839,2.35,9.13,-11.14
318123.687000,-0.241,-0.456,0.849,0.43,8.27,-10.83
318123.703000,-0.238,-0.469,0.865,-0.03,7.48,-10.16
318123.718000,-0.231,-0.479,0.872,1.43,7.32,-9.77
318123.718000,-0.23,-0.479,0.87,3.27,7.2,-10.01
318123.734000,-0.231,-0.475,0.865,4.0,6.68,-10.22
318123.750000,-0.225,-0.478,0.86,3.02,6.53,-9.98
318123.750000,-0.22,-0.486,0.859,1.46,6.32,-9.52
318123.765000,-0.215,-0.49,0.866,-0.15,6.16,-9.49
318123.781000,-0.21,-0.5,0.876,0.24,6.13,-9.52
318123.796000,-0.208,-0.505,0.878,2.47,5.89,-9.95
318123.796000,-0.204,-0.501,0.872,5.52,5.74,-10.71
318123.796000,-0.199,-0.496,0.861,8.51,5.46,-11.2
318123.812000,-0.187,-0.486,0.846,10.35,5.55,-11.41
318123.828000,-0.174,-0.479,0.828,10.99,6.01,-11.41
318123.843000,-0.157,-0.468,0.8,9.86,5.83,-11.2
318123.843000,-0.136,-0.464,0.778,8.12,6.68,-10.44
318123.859000,-0.125,-0.461,0.755,5.86,8.15,-9.43
318123.859000,-0.117,-0.458,0.739,3.69,10.8,-8.51
318123.875000,-0.116,-0.465,0.734,3.97,14.98,-7.39
318123.890000,-0.122,-0.464,0.737,7.54,23.59,-5.98
318123.890000,-0.134,-0.469,0.745,9.8,28.05,-5.46
318123.906000,-0.149,-0.471,0.758,9.37,31.62,-5.13
318123.921000,-0.174,-0.465,0.765,6.16,34.21,-4.55
318123.921000,-0.197,-0.469,0.782,3.2,37.32,-4.88
318123.937000,-0.221,-0.481,0.817,1.68,39.98,-6.2
318123.953000,-0.276,-0.496,0.915,3.08,41.02,-7.26
318123.953000,-0.3,-0.509,0.977,8.06,41.05,-8.45
318123.968000,-0.324,-0.52,1.036,17.03,39.55,-9.86
318123.984000,-0.347,-0.515,1.069,27.53,36.1,-11.75
318123.984000,-0.368,-0.489,1.067,36.26,30.4,-13.49
318124.000000,-0.38,-0.457,1.042,39.55,23.62,-14.01
318124.015000,-0.371,-0.424,1.0,35.52,18.52,-13.28
318124.015000,-0.366,-0.4,0.994,25.64,15.29,-12.33
318124.015000,-0.368,-0.397,0.982,13.15,12.48,-11.29
318124.031000,-0.365,-0.401,0.983,0.85,9.95,-9.89
318124.046000,-0.36,-0.407,0.994,-6.56,8.27,-8.06
318124.046000,-0.352,-0.417,1.002,-9.95,5.92,-6.35
318124.062000,-0.356,-0.426,1.012,-10.16,2.59,-5.37
318124.062000,-0.352,-0.442,1.012,-7.87,-1.56,-4.82
318124.078000,-0.348,-0.446,1.012,-4.61,-5.86,-4.67
318124.093000,-0.343,-0.446,0.995,-0.55,-9.7,-4.46
318124.093000,-0.336,-0.435,0.963,1.19,-13.25,-4.18
318124.109000,-0.325,-0.428,0.931,-1.22,-16.48,-3.69
318124.125000,-0.31,-0.431,0.904,-6.62,-18.98,-2.69
318124.140000,-0.299,-0.443,0.892,-12.05,-19.59,-1.95
318124.140000,-0.285,-0.454,0.889,-15.84,-19.07,-1.86
318124.140000,-0.274,-0.471,0.891,-16.75,-17.94,-2.26
318124.171000,-0.276,-0.477,0.895,-16.02,-17.18,-3.72
318124.171000,-0.275,-0.48,0.901,-13.03,-16.69,-5.25
318124.187000,-0.271,-0.481,0.899,-8.73,-16.79,-6.59
318124.203000,-0.271,-0.471,0.886,-5.62,-17.58,-7.63
318124.203000,-0.267,-0.459,0.876,-4.3,-17.88,-8.33
318124.218000,-0.264,-0.454,0.868,-4.91,-17.98,-8.67
318124.234000,-0.263,-0.455,0.861,-6.59,-17.98,-8.67
318124.234000,-0.261,-0.456,0.859,-8.06,-17.58,-8.64
318124.250000,-0.256,-0.455,0.861,-8.42,-16.97,-8.76
318124.250000,-0.254,-0.456,0.859,-7.84,-16.42,-8.82
318124.265000,-0.25,-0.463,0.861,-6.74,-15.66,-9.03
318124.281000,-0.249,-0.464,0.862,-5.04,-15.05,-9.64
318124.281000,-0.252,-0.46,0.865,-3.36,-14.86,-10.25
318124.296000,-0.252,-0.455,0.863,-1.56,-14.62,-10.44
318124.296000,-0.248,-0.449,0.858,-0.21,-14.34,-10.13
318124.312000,-0.24,-0.447,0.854,0.31,-13.46,-9.7
318124.328000,-0.231,-0.445,0.848,-1.01,-12.51,-9.22
318124.343000,-0.227,-0.447,0.844,-3.36,-11.51,-9.06
318124.343000,-0.227,-0.449,0.848,-5.89,-10.44,-9.28
318124.359000,-0.225,-0.455,0.854,-7.39,-9.22,-9.19
318124.359000,-0.22,-0.461,0.857,-8.09,-8.51,-8.91
318124.375000,-0.219,-0.462,0.852,-8.51,-8.09,-8.51
318124.390000,-0.219,-0.46,0.847,-9.64,-7.63,-8.15
318124.390000,-0.221,-0.466,0.852,-10.83,-6.93,-7.66
318124.406000,-0.222,-0.478,0.866,-10.32,-5.49,-7.2
318124.406000,-0.224,-0.482,0.873,-8.97,-4.79,-7.42
318124.421000,-0.227,-0.481,0.866,-7.97,-5.01,-7.75
318124.437000,-0.229,-0.476,0.859,-8.0,-5.28,-7.72
318124.437000,-0.226,-0.48,0.857,-8.76,-5.28,-7.54
318124.453000,-0.222,-0.492,0.863,-9.34,-4.67,-7.63
318124.453000,-0.221,-0.502,0.872,-8.82,-3.78,-8.21
318124.468000,-0.223,-0.504,0.873,-7.54,-3.69,-9.13
318124.484000,-0.218,-0.506,0.876,-5.55,-4.49,-9.7
318124.500000,-0.209,-0.505,0.866,-3.39,-5.46,-10.19
318124.500000,-0.206,-0.497,0.856,-2.32,-5.95,-10.74
318124.515000,-0.206,-0.495,0.856,-2.01,-5.89,-11.23
318124.515000,-0.209,-0.49,0.858,-1.89,-5.68,-11.96
318124.531000,-0.209,-0.489,0.861,-0.49,-4.97,-12.09
318124.531000,-0.209,-0.482,0.862,1.4,-4.24,-12.02
318124.546000,-0.215,-0.477,0.869,2.78,-3.33,-11.87
318124.562000,-0.213,-0.471,0.874,3.51,-3.11,-11.6
318124.578000,-0.214,-0.467,0.871,3.72,-3.88,-11.11
318124.593000,-0.213,-0.464,0.868,3.39,-4.39,-10.68
318124.593000,-0.212,-0.458,0.87,2.84,-4.67,-10.56
318124.609000,-0.213,-0.455,0.874,2.66,-4.55,-10.5
318124.625000,-0.215,-0.452,0.876,2.81,-4.09,-10.16
318124.625000,-0.213,-0.446,0.874,3.51,-4.06,-9.86
318124.640000,-0.214,-0.437,0.872,4.03,-4.03,-9.55
318124.656000,-0.209,-0.429,0.872,4.3,-3.88,-8.76
318124.656000,-0.204,-0.423,0.871,4.0,-3.85,-7.57
318124.671000,-0.206,-0.423,0.869,3.05,-3.78,-6.41
318124.671000,-0.206,-0.426,0.872,1.98,-3.57,-5.19
318124.687000,-0.203,-0.426,0.874,1.22,-3.39,-3.91
318124.703000,-0.198,-0.43,0.875,0.7,-3.54,-2.72
318124.703000,-0.198,-0.433,0.876,0.76,-3.63,-1.83
318124.718000,-0.202,-0.432,0.872,0.7,-3.66,-1.22
318124.734000,-0.204,-0.428,0.872,0.46,-3.54,-0.49
318124.734000,-0.206,-0.426,0.877,0.55,-3.11,0.27
318124.750000,-0.207,-0.431,0.881,0.67,-3.02,1.31
318124.750000,-0.205,-0.434,0.882,0.76,-3.11,2.2
318124.765000,-0.202,-0.436,0.886,1.25,-3.3,2.9
318124.781000,-0.198,-0.439,0.888,1.68,-3.6,3.48
318124.781000,-0.199,-0.439,0.885,2.08,-3.75,3.85
318124.796000,-0.198,-0.44,0.884,2.5,-3.78,4.03
318124.812000,-0.196,-0.441,0.881,2.44,-3.91,4.49
318124.812000,-0.194,-0.446,0.881,1.98,-3.97,5.07
318124.828000,-0.192,-0.453,0.884,1.53,-4.03,5.46
318124.828000,-0.191,-0.455,0.882,1.43,-4.15,5.58
318124.843000,-0.191,-0.46,0.88,1.92,-4.06,5.71
318124.859000,-0.192,-0.463,0.882,2.72,-3.81,5.71
318124.859000,-0.192,-0.46,0.877,3.27,-3.85,5.58
318124.875000,-0.193,-0.458,0.871,3.27,-3.91,5.77
318124.890000,-0.191,-0.461,0.865,2.41,-3.66,6.35
318124.890000,-0.191,-0.463,0.865,1.4,-3.27,6.9
318124.906000,-0.196,-0.465,0.865,0.46,-2.78,7.14
318124.906000,-0.201,-0.474,0.864,-0.31,-2.38,7.48
318124.921000,-0.2,-0.482,0.867,-0.82,-2.38,7.63
318124.937000,-0.199,-0.485,0.87,-0.52,-2.41,7.42
318124.937000,-0.202,-0.488,0.869,0.18,-2.66,7.11
318124.953000,-0.2,-0.493,0.867,1.22,-2.84,7.05
318124.953000,-0.195,-0.495,0.859,2.38,-2.59,6.93
318124.968000,-0.196,-0.494,0.854,2.29,-2.14,6.59
318124.984000,-0.203,-0.495,0.855,1.53,-1.95,6.16
318125.000000,-0.199,-0.499,0.853,1.25,-1.59,5.77
318125.000000,-0.197,-0.498,0.846,1.13,-1.5,5.37
318125.000000,-0.193,-0.493,0.843,0.73,-1.07,4.94
318125.015000,-0.191,-0.491,0.84,0.4,0.24,4.43
318125.031000,-0.195,-0.491,0.842,-0.27,1.16,4.0
318125.031000,-0.201,-0.494,0.847,0.0,1.95,3.91
318125.046000,-0.2,-0.492,0.851,1.04,2.66,4.03
318125.062000,-0.195,-0.496,0.854,2.66,3.81,4.43
318125.078000,-0.198,-0.494,0.851,3.14,4.15,4.03
318125.093000,-0.198,-0.496,0.851,2.62,4.61,3.48
318125.093000,-0.198,-0.501,0.851,1.5,4.67,3.08
318125.109000,-0.201,-0.501,0.855,0.76,4.73,2.56
318125.125000,-0.202,-0.5,0.86,0.89,5.31,2.11
318125.125000,-0.202,-0.501,0.863,1.1,5.89,1.92
318125.125000,-0.203,-0.5,0.862,1.4,6.68,1.31
318125.140000,-0.201,-0.497,0.862,1.65,7.26,1.01
318125.156000,-0.198,-0.499,0.864,1.89,7.54,1.16
318125.171000,-0.194,-0.502,0.865,1.65,7.93,0.95
318125.171000,-0.193,-0.507,0.871,1.65,8.42,0.58
318125.187000,-0.195,-0.509,0.873,1.92,8.7,-0.09
318125.203000,-0.195,-0.51,0.877,2.41,8.51,-0.7
318125.203000,-0.196,-0.51,0.879,3.08,8.09,-1.56
318125.218000,-0.198,-0.505,0.875,3.63,7.63,-2.32
318125.218000,-0.199,-0.504,0.872,3.57,7.66,-2.78
318125.234000,-0.197,-0.506,0.875,3.14,8.09,-3.23
318125.250000,-0.197,-0.51,0.882,3.42,8.55,-3.6
318125.250000,-0.198,-0.511,0.886,4.33,8.82,-4.58
318125.265000,-0.198,-0.508,0.887,5.83,8.82,-5.58
318125.265000,-0.2,-0.506,0.891,7.48,8.61,-6.29
318125.281000,-0.203,-0.5,0.891,8.15,8.09,-7.11
318125.296000,-0.205,-0.493,0.89,8.24,7.81,-7.81
318125.312000,-0.205,-0.492,0.89,7.97,7.63,-8.24
318125.312000,-0.202,-0.489,0.891,7.48,7.57,-8.51
318125.312000,-0.198,-0.486,0.891,7.02,7.57,-8.82
318125.328000,-0.194,-0.484,0.891,6.74,7.35,-8.97
318125.343000,-0.195,-0.484,0.893,6.96,7.29,-9.13
318125.343000,-0.196,-0.48,0.893,7.48,7.51,-9.4
318125.359000,-0.198,-0.478,0.891,7.75,7.45,-9.58
318125.375000,-0.198,-0.477,0.888,7.75,6.96,-9.67
318125.390000,-0.196,-0.475,0.886,7.32,6.62,-9.92
318125.390000,-0.195,-0.473,0.884,6.44,6.44,-10.04
318125.406000,-0.192,-0.471,0.882,5.71,6.47,-10.22
318125.406000,-0.192,-0.468,0.885,5.43,7.08,-10.28
318125.421000,-0.194,-0.466,0.887,5.49,7.57,-10.25
318125.421000,-0.197,-0.463,0.889,6.23,7.84,-10.13
318125.437000,-0.199,-0.46,0.889,6.9,7.84,-9.98
318125.453000,-0.196,-0.46,0.888,6.93,7.75,-9.86
318125.468000,-0.198,-0.457,0.888,5.52,7.29,-9.92
318125.468000,-0.199,-0.455,0.887,4.79,7.17,-10.04
318125.484000,-0.197,-0.453,0.886,4.06,7.32,-10.04
318125.500000,-0.199,-0.449,0.885,3.72,7.75,-9.83
318125.500000,-0.199,-0.448,0.887,3.91,8.36,-9.58
318125.500000,-0.209,-0.446,0.895,4.3,8.15,-9.64
318125.515000,-0.209,-0.447,0.888,4.3,7.81,-9.25
318125.531000,-0.21,-0.448,0.89,4.21,8.0,-8.94
318125.546000,-0.214,-0.451,0.892,4.03,8.09,-8.97
318125.546000,-0.214,-0.453,0.894,4.03,7.54,-8.97
318125.546000,-0.21,-0.45,0.891,4.39,7.17,-9.16
318125.562000,-0.211,-0.449,0.885,4.39,6.9,-9.37
318125.578000,-0.21,-0.451,0.883,3.97,7.2,-9.19
318125.593000,-0.213,-0.451,0.885,3.48,7.69,-9.06
318125.609000,-0.214,-0.452,0.881,2.9,7.66,-9.03
318125.625000,-0.214,-0.458,0.879,2.47,7.51,-8.76
318125.625000,-0.212,-0.462,0.879,2.38,7.48,-8.82
318125.640000,-0.213,-0.462,0.876,2.53,7.72,-9.09
318125.640000,-0.217,-0.463,0.871,2.29,7.93,-9.16
318125.656000,-0.219,-0.469,0.867,1.77,8.39,-9.03
318125.671000,-0.222,-0.472,0.867,1.13,8.79,-9.34
318125.671000,-0.224,-0.477,0.865,0.89,9.09,-9.89
318125.687000,-0.227,-0.483,0.864,1.22,9.64,-10.32
318125.703000,-0.234,-0.489,0.866,1.89,10.28,-10.93
318125.703000,-0.244,-0.491,0.866,3.17,11.05,-11.87
318125.718000,-0.248,-0.5,0.864,4.64,11.51,-12.42
318125.718000,-0.247,-0.507,0.87,5.68,12.05,-13.67
318125.734000,-0.256,-0.524,0.874,7.51,12.94,-15.69
318125.750000,-0.259,-0.536,0.885,9.61,13.64,-18.49
318125.750000,-0.262,-0.545,0.9,13.15,14.16,-22.49
318125.765000,-0.255,-0.544,0.903,18.13,13.37,-27.04
318125.781000,-0.235,-0.528,0.896,24.41,11.93,-31.5
318125.781000,-0.222,-0.507,0.878,30.18,10.9,-35.16
318125.796000,-0.205,-0.485,0.862,33.94,11.26,-37.23
318125.812000,-0.2,-0.46,0.852,35.86,12.54,-38.79
318125.812000,-0.194,-0.438,0.853,35.74,14.71,-39.06
318125.828000,-0.188,-0.434,0.865,35.31,16.36,-38.21
318125.828000,-0.191,-0.426,0.876,34.18,17.09,-37.9
318125.843000,-0.192,-0.417,0.888,33.81,17.43,-37.42
318125.859000,-0.196,-0.405,0.895,33.36,17.18,-36.71
318125.859000,-0.198,-0.4,0.901,32.17,17.12,-35.55
318125.875000,-0.2,-0.391,0.911,30.09,17.33,-34.46
318125.875000,-0.202,-0.384,0.918,26.67,17.37,-33.17
318125.890000,-0.207,-0.382,0.932,22.77,17.37,-31.65
318125.906000,-0.211,-0.381,0.946,19.1,17.09,-30.24
318125.906000,-0.214,-0.386,0.955,15.87,16.05,-28.63
318125.921000,-0.215,-0.389,0.959,13.18,14.34,-27.62
318125.937000,-0.213,-0.39,0.965,11.78,12.82,-26.92
318125.937000,-0.214,-0.386,0.966,11.17,11.38,-26.46
318125.953000,-0.213,-0.385,0.959,10.8,9.86,-25.82
318125.953000,-0.211,-0.383,0.951,10.01,8.51,-24.9
318125.968000,-0.208,-0.381,0.945,8.85,7.51,-24.17
318125.984000,-0.205,-0.379,0.941,7.72,6.9,-23.47
318126.000000,-0.203,-0.38,0.936,6.59,6.44,-22.83
318126.000000,-0.206,-0.378,0.932,5.74,6.07,-22.37
318126.015000,-0.209,-0.378,0.931,5.25,5.83,-21.82
318126.015000,-0.212,-0.377,0.928,4.76,5.49,-21.33
318126.031000,-0.213,-0.381,0.927,4.58,5.13,-20.84
318126.031000,-0.211,-0.384,0.924,4.7,5.07,-20.42
318126.046000,-0.213,-0.386,0.923,4.73,4.88,-20.26
318126.046000,-0.214,-0.385,0.924,5.13,4.91,-20.48
318126.078000,-0.215,-0.382,0.923,5.98,5.07,-20.57
318126.078000,-0.219,-0.378,0.918,6.53,5.01,-20.51
318126.093000,-0.218,-0.373,0.918,6.65,4.85,-20.33
318126.093000,-0.217,-0.368,0.918,6.47,4.55,-20.08
318126.125000,-0.219,-0.361,0.916,6.1,4.3,-19.56
318126.125000,-0.217,-0.36,0.913,5.89,4.49,-18.92
318126.140000,-0.215,-0.36,0.911,5.28,4.43,-18.19
318126.140000,-0.212,-0.362,0.915,4.46,4.76,-17.49
318126.156000,-0.21,-0.363,0.915,4.49,5.01,-16.91
318126.171000,-0.215,-0.361,0.917,4.64,5.07,-16.69
318126.171000,-0.214,-0.359,0.917,4.91,4.97,-16.11
318126.187000,-0.208,-0.36,0.916,5.74,5.43,-15.29
318126.203000,-0.207,-0.357,0.916,5.58,5.01,-15.11
318126.203000,-0.205,-0.357,0.92,5.04,4.85,-14.71
318126.218000,-0.208,-0.352,0.922,4.97,4.73,-14.47
318126.234000,-0.208,-0.35,0.923,5.46,4.64,-13.52
318126.234000,-0.207,-0.348,0.922,5.92,4.91,-12.45
318126.250000,-0.207,-0.346,0.922,5.22,4.88,-11.75
318126.250000,-0.205,-0.349,0.927,4.43,5.16,-10.83
318126.265000,-0.205,-0.353,0.935,4.27,5.22,-10.01
318126.281000,-0.204,-0.356,0.937,4.33,4.73,-9.49
318126.281000,-0.201,-0.356,0.936,4.49,4.15,-9.03
318126.296000,-0.202,-0.356,0.936,4.49,3.51,-8.76
318126.296000,-0.201,-0.357,0.936,4.21,3.23,-8.33
318126.312000,-0.202,-0.359,0.939,4.18,2.93,-7.81
318126.328000,-0.203,-0.358,0.939,4.39,2.62,-7.29
318126.328000,-0.203,-0.352,0.935,4.88,2.35,-6.87
318126.343000,-0.203,-0.352,0.929,4.79,1.83,-6.16
318126.359000,-0.2,-0.351,0.926,3.78,1.46,-5.37
318126.359000,-0.199,-0.348,0.925,2.84,1.5,-4.43
318126.375000,-0.197,-0.35,0.924,2.04,1.68,-3.42
318126.390000,-0.197,-0.355,0.923,1.16,1.62,-2.29
318126.390000,-0.201,-0.359,0.924,0.4,1.5,-1.37
318126.406000,-0.201,-0.363,0.923,-0.24,1.34,-0.61
318126.406000,-0.202,-0.368,0.924,-0.67,1.22,0.06
318126.421000,-0.202,-0.373,0.925,-0.49,1.22,0.55
318126.437000,-0.2,-0.376,0.927,-0.03,1.37,0.67
318126.437000,-0.199,-0.378,0.927,0.15,1.46,0.61
318126.453000,-0.203,-0.377,0.922,-0.06,1.22,0.52
318126.453000,-0.207,-0.376,0.921,-0.7,0.79,0.73
318126.468000,-0.207,-0.376,0.923,-1.25,0.76,1.31
318126.484000,-0.201,-0.382,0.927,-0.61,1.1,2.14
318126.500000,-0.201,-0.38,0.927,0.27,1.34,2.04
318126.500000,-0.208,-0.375,0.923,0.52,1.1,1.77
318126.515000,-0.21,-0.374,0.92,0.37,1.01,2.01
318126.515000,-0.209,-0.378,0.919,-0.18,0.82,2.47
318126.531000,-0.212,-0.377,0.917,-0.82,0.82,2.69
318126.531000,-0.213,-0.373,0.92,-0.92,1.04,2.69
318126.546000,-0.214,-0.369,0.921,-0.82,0.76,2.62
318126.562000,-0.222,-0.365,0.915,-0.46,0.55,2.9
318126.578000,-0.225,-0.359,0.909,-0.18,0.7,3.51
318126.593000,-0.224,-0.355,0.902,-0.18,1.25,4.33
318126.593000,-0.227,-0.354,0.895,-1.62,1.1,5.01
318126.593000,-0.226,-0.359,0.896,-3.11,1.13,5.74
318126.609000,-0.221,-0.372,0.897,-3.81,1.62,6.26
318126.625000,-0.218,-0.382,0.901,-3.69,1.77,6.41
318126.625000,-0.219,-0.39,0.908,-2.56,2.29,6.01
318126.640000,-0.216,-0.399,0.908,-0.55,2.87,5.62
318126.656000,-0.211,-0.405,0.909,1.22,3.33,5.13
318126.656000,-0.21,-0.408,0.91,2.2,3.6,4.43
318126.671000,-0.208,-0.407,0.908,2.9,3.97,3.78
318126.671000,-0.203,-0.409,0.906,3.08,4.24,3.2
318126.687000,-0.2,-0.407,0.901,2.84,4.06,2.62
318126.703000,-0.2,-0.402,0.903,2.5,4.24,2.17
318126.718000,-0.198,-0.402,0.91,2.41,5.01,2.11
318126.734000,-0.197,-0.4,0.91,2.53,5.77,2.26
318126.734000,-0.198,-0.396,0.914,2.47,6.2,2.17
318126.734000,-0.2,-0.397,0.923,2.44,6.38,1.98
318126.750000,-0.204,-0.397,0.934,2.53,6.41,1.74
318126.750000,-0.211,-0.398,0.939,2.78,5.71,1.46
318126.781000,-0.216,-0.402,0.941,3.08,4.91,1.43
318126.781000,-0.219,-0.403,0.943,3.36,4.36,1.13
318126.781000,-0.222,-0.401,0.941,3.14,4.0,0.85
318126.812000,-0.229,-0.403,0.945,2.66,3.88,1.01
318126.812000,-0.232,-0.404,0.95,2.17,3.51,0.98
318126.812000,-0.233,-0.407,0.949,1.86,2.96,0.95
318126.828000,-0.232,-0.405,0.946,1.8,1.83,0.89
318126.828000,-0.225,-0.405,0.941,1.65,0.7,0.79
318126.859000,-0.219,-0.403,0.933,1.16,-0.12,0.52
318126.859000,-0.215,-0.4,0.925,0.46,-0.67,0.24
318126.875000,-0.212,-0.396,0.919,-0.31,-0.95,-0.06
318126.890000,-0.211,-0.396,0.917,-0.89,-0.61,-0.31
318126.890000,-0.212,-0.394,0.913,-0.95,-0.15,-0.58
318126.906000,-0.223,-0.382,0.912,-1.56,-0.52,-0.82
318126.921000,-0.221,-0.386,0.914,-0.15,0.09,-0.24
318126.921000,-0.228,-0.367,0.905,0.61,-0.18,-0.49
318126.937000,-0.228,-0.373,0.907,0.73,0.34,0.46
318126.937000,-0.226,-0.373,0.909,0.43,0.82,0.64
318126.953000,-0.228,-0.362,0.906,-0.4,0.98,0.46
318126.968000,-0.226,-0.366,0.905,-1.46,1.1,0.82
318126.968000,-0.229,-0.369,0.91,-2.78,1.13,1.13
318126.984000,-0.229,-0.374,0.915,-3.45,1.68,1.25
318127.000000,-0.226,-0.379,0.921,-3.42,1.71,1.31
318127.000000,-0.222,-0.384,0.92,-2.38,1.65,1.19
318127.015000,-0.223,-0.38,0.918,-1.4,1.53,0.4
318127.031000,-0.228,-0.373,0.917,-1.1,1.16,-0.31
318127.046000,-0.23,-0.37,0.914,-1.46,1.74,-0.18
318127.046000,-0.232,-0.371,0.916,-1.37,2.2,-0.09
318127.062000,-0.231,-0.37,0.923,-0.46,2.69,0.06
318127.062000,-0.231,-0.37,0.928,0.46,2.59,0.0
318127.078000,-0.233,-0.372,0.93,0.79,2.29,0.12
318127.078000,-0.234,-0.372,0.929,0.61,1.74,0.0
318127.093000,-0.235,-0.366,0.921,-0.27,0.61,-0.21
318127.109000,-0.234,-0.367,0.917,-0.85,-0.09,0.09
318127.109000,-0.227,-0.371,0.911,-1.16,-0.03,0.52
318127.125000,-0.225,-0.37,0.907,-1.22,0.67,0.4
318127.125000,-0.24,-0.361,0.905,-1.77,0.55,0.18
318127.140000,-0.224,-0.377,0.909,-0.37,2.01,1.86
318127.156000,-0.216,-0.38,0.91,2.01,3.3,2.17
318127.171000,-0.232,-0.364,0.903,1.01,2.44,1.16
318127.171000,-0.235,-0.37,0.903,-0.52,2.2,1.62
318127.187000,-0.235,-0.379,0.918,-1.1,2.81,2.53
318127.187000,-0.236,-0.386,0.929,-0.49,2.93,3.23
318127.203000,-0.238,-0.386,0.929,-0.03,2.59,3.14
318127.203000,-0.237,-0.382,0.924,-0.09,2.11,2.87
318127.218000,-0.238,-0.386,0.92,-1.04,1.59,3.02
318127.234000,-0.236,-0.392,0.921,-1.86,1.4,3.14
318127.250000,-0.235,-0.397,0.923,-2.04,1.46,3.2
318127.250000,-0.235,-0.401,0.924,-1.86,1.37,2.81
318127.265000,-0.236,-0.404,0.929,-1.25,1.4,2.01
318127.265000,-0.237,-0.404,0.93,-0.24,0.85,1.25
318127.281000,-0.236,-0.405,0.926,1.13,0.46,0.89
318127.281000,-0.235,-0.399,0.924,1.86,0.52,0.46
318127.296000,-0.237,-0.392,0.922,1.74,0.37,-0.12
318127.312000,-0.233,-0.393,0.923,1.56,0.18,-0.12
318127.328000,-0.234,-0.394,0.92,1.22,-0.31,-0.24
318127.343000,-0.233,-0.389,0.917,0.79,-0.37,-0.37
318127.343000,-0.231,-0.388,0.91,0.34,-0.24,-0.18
318127.343000,-0.229,-0.391,0.904,-0.58,-0.21,0.0
318127.359000,-0.229,-0.393,0.905,-1.28,0.21,-0.03
318127.359000,-0.234,-0.393,0.912,-1.31,0.7,0.0
318127.375000,-0.235,-0.396,0.911,-0.98,1.13,0.06
318127.390000,-0.239,-0.395,0.91,-0.76,1.5,-0.18
318127.406000,-0.24,-0.39,0.91,-0.85,1.46,-0.37
318127.406000,-0.241,-0.391,0.91,-1.46,1.25,-0.55
318127.421000,-0.242,-0.392,0.913,-2.17,1.19,-0.7
318127.421000,-0.24,-0.394,0.912,-2.41,1.31,-0.76
318127.453000,-0.236,-0.396,0.911,-2.29,1.46,-0.89
318127.453000,-0.239,-0.402,0.917,-2.04,1.68,-1.04
318127.468000,-0.24,-0.409,0.93,-1.4,1.83,-1.56
318127.468000,-0.242,-0.417,0.936,0.67,1.5,-2.5
318127.484000,-0.241,-0.417,0.935,3.05,0.85,-3.75
318127.500000,-0.244,-0.41,0.934,4.97,-0.03,-5.34
318127.500000,-0.249,-0.405,0.939,6.68,-0.43,-6.62
318127.515000,-0.248,-0.404,0.942,8.06,-0.46,-7.26
318127.531000,-0.241,-0.407,0.934,9.09,-0.67,-8.09
318127.531000,-0.239,-0.395,0.931,9.46,-1.1,-9.64
318127.546000,-0.237,-0.388,0.929,9.55,-1.34,-10.53
318127.562000,-0.232,-0.386,0.923,9.92,-1.65,-11.11
318127.562000,-0.227,-0.381,0.915,10.83,-1.62,-12.05
318127.562000,-0.221,-0.369,0.91,12.18,-1.13,-12.54
318127.578000,-0.218,-0.36,0.909,13.79,-0.46,-12.63
318127.578000,-0.22,-0.35,0.901,14.68,0.03,-12.45
318127.593000,-0.218,-0.341,0.894,14.13,-0.12,-12.15
318127.609000,-0.214,-0.331,0.893,12.88,0.18,-11.38
318127.625000,-0.216,-0.325,0.892,11.41,0.7,-10.35
318127.640000,-0.219,-0.323,0.891,10.1,1.43,-9.06
318127.640000,-0.222,-0.317,0.894,8.76,2.08,-7.81
318127.656000,-0.225,-0.317,0.899,7.51,2.62,-6.29
318127.671000,-0.227,-0.316,0.9,6.35,2.78,-4.67
318127.671000,-0.228,-0.314,0.899,4.88,2.69,-3.27
318127.687000,-0.229,-0.314,0.899,3.3,2.84,-1.89
318127.703000,-0.23,-0.315,0.905,1.56,3.14,-0.4
318127.703000,-0.232,-0.32,0.911,0.0,3.57,1.1
318127.718000,-0.232,-0.327,0.919,-1.01,4.06,2.38
318127.734000,-0.233,-0.333,0.922,-1.43,4.21,3.27
318127.734000,-0.231,-0.335,0.925,-1.62,3.91,4.06
318127.750000,-0.234,-0.341,0.925,-2.26,3.51,4.85
318127.750000,-0.229,-0.349,0.927,-2.93,3.3,5.52
318127.765000,-0.224,-0.355,0.931,-3.11,3.42,5.74
318127.781000,-0.226,-0.36,0.935,-3.05,3.81,5.49
318127.781000,-0.233,-0.365,0.941,-2.84,3.94,5.22
318127.796000,-0.231,-0.369,0.941,-2.32,3.48,4.94
318127.812000,-0.227,-0.372,0.944,-1.53,3.51,4.7
318127.812000,-0.229,-0.374,0.944,-1.92,2.69,4.33
318127.828000,-0.23,-0.379,0.946,-2.14,2.11,3.85
318127.828000,-0.227,-0.383,0.951,-0.82,2.14,3.17
318127.843000,-0.228,-0.38,0.947,0.95,1.77,2.59
318127.843000,-0.228,-0.376,0.938,2.14,1.31,1.98
318127.859000,-0.229,-0.374,0.933,2.26,1.07,1.65
318127.875000,-0.23,-0.372,0.93,1.68,1.07,1.28
318127.890000,-0.228,-0.372,0.933,1.22,1.25,1.34
318127.890000,-0.229,-0.373,0.935,1.04,1.19,1.04
318127.906000,-0.23,-0.374,0.938,1.04,1.16,0.67
318127.906000,-0.236,-0.374,0.939,1.1,0.95,0.31
318127.921000,-0.242,-0.371,0.935,0.95,0.37,0.24
318127.921000,-0.244,-0.369,0.932,0.61,-0.34,0.18
318127.937000,-0.238,-0.371,0.931,0.52,-0.52,0.79
318127.953000,-0.238,-0.366,0.92,-0.24,-0.79,0.67
318127.953000,-0.239,-0.363,0.913,-1.77,-0.92,0.4
318127.968000,-0.235,-0.368,0.912,-2.56,-0.55,0.61
318127.984000,-0.236,-0.369,0.911,-2.96,-0.52,0.7
318128.000000,-0.239,-0.371,0.911,-2.84,-0.03,0.95
318128.000000,-0.24,-0.367,0.907,-2.5,0.34,0.98
318128.015000,-0.238,-0.37,0.903,-2.59,0.4,1.22
318128.031000,-0.239,-0.375,0.9,-2.87,0.52,1.25
318128.046000,-0.239,-0.373,0.899,-3.17,0.85,1.01
318128.046000,-0.237,-0.373,0.901,-3.2,1.46,0.73
318128.046000,-0.243,-0.372,0.902,-3.3,1.95,0.06
318128.062000,-0.247,-0.371,0.907,-2.81,2.5,-0.15
318128.078000,-0.247,-0.376,0.912,-1.65,2.9,0.03
318128.093000,-0.25,-0.373,0.912,-0.52,3.11,-0.06
318128.093000,-0.251,-0.371,0.908,0.0,3.14,-0.15
318128.109000,-0.252,-0.372,0.907,0.21,3.23,-0.27
318128.125000,-0.248,-0.369,0.904,-0.4,3.17,-0.67
318128.125000,-0.245,-0.365,0.9,-1.22,3.48,-0.79
318128.140000,-0.246,-0.366,0.901,-1.89,4.0,-0.82
318128.140000,-0.248,-0.364,0.902,-2.44,4.61,-0.79
318128.156000,-0.25,-0.366,0.902,-2.41,5.16,-0.55
318128.171000,-0.249,-0.368,0.909,-1.77,5.89,-0.4
318128.171000,-0.25,-0.371,0.917,-0.67,6.44,-0.4
318128.187000,-0.253,-0.373,0.926,0.27,6.59,-0.52
318128.203000,-0.253,-0.376,0.928,0.61,6.26,-0.79
318128.203000,-0.251,-0.377,0.93,0.21,5.52,-1.25
318128.218000,-0.25,-0.377,0.934,-0.52,4.91,-1.59
318128.234000,-0.25,-0.376,0.934,-1.4,4.09,-1.95
318128.234000,-0.25,-0.377,0.935,-1.62,3.72,-2.04
318128.250000,-0.249,-0.375,0.934,-1.22,3.51,-1.92
318128.250000,-0.247,-0.372,0.931,-0.76,3.2,-1.83
318128.265000,-0.247,-0.371,0.926,-0.12,3.08,-1.83
318128.265000,-0.247,-0.369,0.924,-0.18,3.14,-1.8
318128.281000,-0.246,-0.368,0.922,-1.01,3.11,-1.71
318128.296000,-0.244,-0.369,0.921,-1.56,2.93,-1.59
318128.312000,-0.235,-0.372,0.921,-1.83,3.05,-1.43
318128.312000,-0.25,-0.364,0.916,-2.78,2.53,-1.71
318128.328000,-0.243,-0.377,0.924,-2.99,2.96,-0.95
318128.343000,-0.249,-0.378,0.923,-1.62,2.81,-1.53
318128.343000,-0.253,-0.365,0.923,-1.86,1.95,-1.98
318128.359000,-0.244,-0.382,0.928,-0.06,2.9,-0.98
318128.359000,-0.243,-0.376,0.927,0.0,2.78,-1.5
318128.375000,-0.25,-0.367,0.919,-0.64,1.8,-2.08
318128.390000,-0.253,-0.363,0.924,-1.28,1.13,-2.32
318128.390000,-0.247,-0.373,0.923,-1.31,0.98,-1.62
318128.406000,-0.245,-0.376,0.924,-0.82,1.28,-1.31
318128.421000,-0.245,-0.366,0.917,-0.58,1.04,-1.34
318128.421000,-0.245,-0.362,0.91,-1.1,0.73,-1.25
318128.421000,-0.245,-0.366,0.911,-1.89,1.01,-0.98
318128.453000,-0.245,-0.371,0.912,-2.75,1.37,-0.92
318128.453000,-0.246,-0.37,0.915,-3.36,1.62,-0.79
318128.468000,-0.246,-0.369,0.916,-3.42,1.56,-0.55
318128.468000,-0.246,-0.369,0.922,-3.02,1.71,-0.61
318128.484000,-0.247,-0.373,0.921,-2.32,1.43,-0.67
318128.500000,-0.249,-0.375,0.922,-1.5,1.04,-1.07
318128.500000,-0.251,-0.372,0.923,-0.43,1.01,-1.4
318128.500000,-0.251,-0.367,0.924,0.52,0.67,-1.56
318128.515000,-0.251,-0.364,0.916,0.76,0.06,-1.43
318128.531000,-0.252,-0.364,0.907,0.4,0.0,-1.22
318128.531000,-0.25,-0.361,0.907,-0.37,0.46,-1.04
318128.562000,-0.251,-0.358,0.912,-0.7,0.92,-0.79
318128.562000,-0.254,-0.361,0.919,-0.52,1.59,-0.37
318128.562000,-0.256,-0.367,0.923,0.21,1.56,-0.18
318128.578000,-0.257,-0.365,0.922,1.01,0.82,-0.21
318128.578000,-0.255,-0.363,0.918,1.31,0.15,-0.31
318128.609000,-0.253,-0.362,0.916,1.04,-0.24,0.03
318128.609000,-0.253,-0.366,0.912,-0.15,0.0,0.34
318128.625000,-0.25,-0.37,0.911,0.12,0.09,0.09
318128.625000,-0.245,-0.378,0.912,0.85,0.27,-0.09
318128.640000,-0.244,-0.382,0.913,2.04,0.58,-0.49
318128.640000,-0.244,-0.387,0.915,3.36,0.92,-0.98
318128.671000,-0.249,-0.387,0.921,4.24,0.85,-1.56
318128.671000,-0.251,-0.381,0.917,4.85,0.06,-2.32
318128.687000,-0.255,-0.371,0.91,5.16,-0.61,-2.84
318128.703000,-0.259,-0.361,0.904,4.94,-0.85,-3.05
318128.703000,-0.258,-0.355,0.899,4.58,-0.46,-2.5
318128.718000,-0.257,-0.352,0.891,3.45,0.27,-1.59
318128.718000,-0.254,-0.353,0.892,1.95,1.04,-0.73
318128.734000,-0.253,-0.355,0.901,1.04,1.68,-0.03
318128.750000,-0.255,-0.358,0.905,0.73,2.08,0.34
318128.750000,-0.254,-0.36,0.904,0.67,2.08,0.67
318128.765000,-0.257,-0.36,0.905,0.46,1.83,0.92
318128.765000,-0.261,-0.359,0.907,0.0,1.62,1.16
318128.796000,-0.265,-0.361,0.91,-0.21,1.46,1.43
318128.796000,-0.271,-0.363,0.91,-0.18,1.5,1.56
318128.812000,-0.267,-0.366,0.91,-0.12,1.68,1.86
318128.812000,-0.266,-0.37,0.908,-0.24,1.68,2.17
318128.812000,-0.265,-0.371,0.904,-0.7,1.74,2.35
318128.843000,-0.265,-0.381,0.908,-0.67,1.83,2.59
318128.843000,-0.264,-0.387,0.906,-0.79,1.46,2.2
318128.859000,-0.261,-0.388,0.903,0.34,1.95,1.65
318128.875000,-0.262,-0.382,0.902,1.34,2.56,1.13
318128.875000,-0.264,-0.381,0.907,1.95,2.72,1.13
318128.890000,-0.264,-0.38,0.907,2.41,2.69,1.13
318128.890000,-0.262,-0.38,0.911,2.2,2.78,1.01
318128.906000,-0.265,-0.378,0.913,1.68,2.84,0.64
318128.921000,-0.267,-0.379,0.917,1.4,2.84,0.79
318128.921000,-0.265,-0.38,0.915,0.89,2.17,1.1
318128.921000,-0.261,-0.38,0.913,0.37,2.01,1.1
318128.937000,-0.26,-0.377,0.91,-0.34,2.17,1.22
318128.953000,-0.261,-0.379,0.916,-1.13,2.29,1.56
318128.953000,-0.258,-0.383,0.916,-1.43,2.35,1.77
318128.984000,-0.26,-0.385,0.921,-1.37,2.72,1.68
318128.984000,-0.262,-0.387,0.925,-1.25,2.59,1.65
318129.000000,-0.261,-0.387,0.925,-1.37,1.89,1.46
318129.000000,-0.26,-0.389,0.925,-1.4,1.43,1.19
318129.015000,-0.26,-0.39,0.928,-1.25,1.16,0.67
318129.015000,-0.262,-0.389,0.929,-0.92,0.98,0.12
318129.015000,-0.264,-0.388,0.928,-0.43,0.76,-0.37
318129.046000,-0.266,-0.388,0.926,0.09,0.37,-0.98
318129.062000,-0.267,-0.385,0.927,0.79,-0.15,-1.43
318129.062000,-0.265,-0.381,0.925,1.19,-0.55,-1.89
318129.078000,-0.262,-0.375,0.918,1.62,-0.79,-2.17
318129.093000,-0.258,-0.37,0.911,1.68,-0.89,-2.14
318129.093000,-0.255,-0.366,0.908,1.43,-0.67,-2.04
318129.109000,-0.255,-0.361,0.906,0.79,-0.76,-1.8
318129.109000,-0.257,-0.362,0.906,0.37,-0.49,-1.43
318129.125000,-0.259,-0.36,0.906,0.0,-0.03,-1.22
318129.140000,-0.265,-0.36,0.91,-0.49,0.27,-0.98
318129.140000,-0.268,-0.359,0.918,-0.76,0.64,-0.52
318129.156000,-0.271,-0.36,0.922,-0.79,0.61,-0.15
318129.171000,-0.274,-0.36,0.923,-0.79,0.12,0.12
318129.171000,-0.273,-0.36,0.922,-1.1,-0.18,0.27
318129.187000,-0.273,-0.361,0.921,-1.37,-0.73,0.37
318129.203000,-0.272,-0.363,0.924,-1.65,-1.19,0.34
318129.203000,-0.27,-0.362,0.919,-1.65,-1.59,0.43
318129.218000,-0.268,-0.361,0.91,-1.86,-1.86,0.46
318129.218000,-0.266,-0.36,0.903,-1.74,-1.92,0.55
318129.234000,-0.266,-0.358,0.899,-2.04,-1.86,0.82
318129.250000,-0.265,-0.36,0.9,-2.23,-1.28,1.13
318129.250000,-0.268,-0.361,0.902,-2.01,-0.95,1.37
318129.265000,-0.271,-0.363,0.903,-1.74,-0.79,1.5
318129.281000,-0.271,-0.363,0.902,-1.74,-0.61,1.74
318129.281000,-0.269,-0.367,0.9,-1.98,-0.58,1.92
318129.312000,-0.268,-0.369,0.9,-2.38,-0.52,2.17
318129.312000,-0.267,-0.374,0.905,-2.62,-0.24,2.01
318129.328000,-0.267,-0.379,0.909,-2.01,0.18,1.71
318129.328000,-0.268,-0.382,0.913,-0.82,-0.09,1.22
318129.328000,-0.27,-0.38,0.911,0.46,-0.52,0.55
318129.343000,-0.269,-0.372,0.907,1.25,-0.95,0.12
318129.343000,-0.266,-0.367,0.9,1.34,-0.92,0.34
318129.359000,-0.262,-0.367,0.896,0.7,-0.34,0.79
318129.359000,-0.262,-0.367,0.902,0.09,0.49,1.13
318129.390000,-0.264,-0.37,0.907,-0.27,0.89,1.43
318129.406000,-0.263,-0.372,0.908,-0.43,0.82,1.71
318129.406000,-0.26,-0.374,0.91,-0.34,0.67,1.77
318129.421000,-0.258,-0.377,0.911,-0.52,0.58,1.74
318129.421000,-0.256,-0.379,0.911,-0.79,0.55,1.71
318129.421000,-0.255,-0.38,0.912,-0.92,0.64,1.68
318129.453000,-0.256,-0.381,0.914,-0.55,1.01,1.62
318129.453000,-0.256,-0.381,0.92,-0.31,1.13,1.5
318129.468000,-0.257,-0.382,0.92,0.0,0.85,1.07
318129.484000,-0.261,-0.379,0.921,0.15,0.37,0.82
318129.484000,-0.259,-0.38,0.924,0.18,0.0,0.73
318129.500000,-0.259,-0.379,0.923,0.31,-0.21,0.73
318129.500000,-0.26,-0.375,0.92,0.09,-0.37,0.85
318129.515000,-0.26,-0.376,0.921,-0.03,-0.24,0.89
318129.531000,-0.259,-0.377,0.923,-0.34,-0.34,1.07
318129.531000,-0.26,-0.382,0.928,-0.4,-0.4,1.04
318129.546000,-0.265,-0.383,0.927,-0.27,-1.01,0.85
318129.562000,-0.265,-0.381,0.923,-0.15,-1.53,0.73
318129.562000,-0.264,-0.382,0.92,-0.27,-1.86,0.46
318129.578000,-0.261,-0.38,0.914,-0.61,-2.23,0.31
318129.578000,-0.256,-0.379,0.913,-0.61,-2.23,0.21
318129.593000,-0.258,-0.378,0.911,-0.34,-1.98,0.0
318129.609000,-0.263,-0.375,0.906,-0.06,-1.77,-0.18
318129.609000,-0.261,-0.37,0.9,0.06,-1.46,-0.12
318129.625000,-0.257,-0.369,0.895,-0.21,-1.1,0.24
318129.640000,-0.257,-0.366,0.891,-1.07,-0.7,0.7
318129.640000,-0.259,-0.366,0.894,-1.98,-0.09,1.19
318129.656000,-0.259,-0.369,0.899,-2.62,0.52,1.34
318129.656000,-0.261,-0.372,0.905,-2.93,0.58,1.46
318129.671000,-0.263,-0.376,0.91,-2.56,0.64,1.56
318129.687000,-0.265,-0.375,0.91,-1.95,0.52,1.53
318129.703000,-0.265,-0.373,0.911,-1.56,0.31,1.46
318129.703000,-0.265,-0.375,0.909,-1.68,0.09,1.53
318129.718000,-0.267,-0.375,0.907,-2.11,0.0,1.74
318129.718000,-0.266,-0.379,0.915,-2.35,0.24,1.8
318129.734000,-0.267,-0.381,0.918,-2.29,0.24,1.71
318129.750000,-0.268,-0.381,0.913,-1.86,-0.12,1.53
318129.750000,-0.268,-0.383,0.914,-1.22,-0.18,1.37
318129.765000,-0.267,-0.381,0.915,-0.67,-0.24,1.1
318129.781000,-0.268,-0.38,0.914,-0.27,-0.43,0.85
318129.781000,-0.265,-0.38,0.911,0.24,-0.58,0.55
318129.781000,-0.264,-0.375,0.903,0.49,-0.85,0.43
318129.796000,-0.262,-0.375,0.898,0.06,-0.64,0.46
318129.812000,-0.261,-0.376,0.9,-0.73,-0.15,0.64
318129.812000,-0.259,-0.381,0.9,-1.4,0.15,0.82
318129.843000,-0.256,-0.385,0.908,-1.1,0.52,0.82
318129.843000,-0.261,-0.383,0.909,-0.34,0.52,0.46
318129.843000,-0.262,-0.381,0.908,0.4,0.52,0.31
318129.859000,-0.263,-0.38,0.907,0.85,0.55,0.43
318129.859000,-0.266,-0.376,0.909,0.61,0.49,0.21
318129.875000,-0.269,-0.377,0.913,0.15,0.49,0.27
318129.890000,-0.267,-0.378,0.917,-0.27,0.37,0.43
318129.890000,-0.265,-0.38,0.918,-0.55,0.15,0.55
318129.921000,-0.264,-0.382,0.914,-0.43,-0.31,0.46
318129.937000,-0.26,-0.381,0.91,-0.12,-0.61,0.49
318129.937000,-0.258,-0.38,0.906,-0.12,-0.67,0.37
318129.953000,-0.26,-0.38,0.904,-0.46,-0.64,0.4
318129.953000,-0.257,-0.383,0.903,-0.27,-0.24,0.55
318129.953000,-0.254,-0.382,0.907,0.21,0.27,0.4
318129.968000,-0.262,-0.378,0.907,0.4,0.58,-0.06
318129.968000,-0.264,-0.376,0.905,-0.12,0.43,-0.12
318130.000000,-0.263,-0.378,0.907,-0.76,0.37,0.06
318130.000000,-0.263,-0.379,0.916,-0.85,0.49,0.15
318130.015000,-0.264,-0.378,0.914,-0.15,0.24,0.15
318130.031000,-0.259,-0.379,0.913,0.4,0.24,0.03
318130.031000,-0.259,-0.378,0.91,0.37,0.03,-0.21
318130.046000,-0.265,-0.378,0.912,-0.09,0.06,-0.24
318130.062000,-0.265,-0.381,0.917,0.21,0.34,0.0
318130.062000,-0.265,-0.377,0.912,0.49,-0.15,0.18
318130.078000,-0.262,-0.377,0.908,0.67,-0.27,0.0
318130.093000,-0.263,-0.374,0.908,0.58,-0.31,-0.21
318130.093000,-0.262,-0.375,0.908,0.21,-0.15,0.06
318130.109000,-0.26,-0.377,0.911,0.18,0.09,0.09
318130.109000,-0.261,-0.376,0.91,0.18,0.06,0.21
318130.125000,-0.263,-0.38,0.913,0.46,0.09,0.37
318130.140000,-0.264,-0.382,0.915,1.07,-0.21,0.15
318130.156000,-0.263,-0.38,0.915,1.4,-0.49,-0.18
318130.156000,-0.261,-0.376,0.913,1.5,-0.79,-0.58
318130.171000,-0.26,-0.375,0.91,1.37,-0.76,-0.52
318130.171000,-0.26,-0.375,0.91,0.89,-0.64,-0.31
318130.187000,-0.257,-0.377,0.91,0.34,-0.55,-0.31
318130.203000,-0.261,-0.375,0.913,0.58,-0.58,-0.18
318130.203000,-0.26,-0.375,0.915,0.95,-0.7,-0.06
318130.218000,-0.258,-0.379,0.912,0.7,-1.04,-0.12
318130.218000,-0.262,-0.377,0.907,0.49,-1.04,-0.18
318130.234000,-0.26,-0.378,0.907,0.24,-1.1,-0.37
318130.234000,-0.262,-0.375,0.907,0.49,-1.01,-0.18
318130.250000,-0.261,-0.376,0.906,0.7,-0.82,-0.03
318130.265000,-0.265,-0.373,0.904,0.37,-0.61,-0.15
318130.265000,-0.265,-0.374,0.905,-0.06,-0.58,-0.21
318130.281000,-0.266,-0.376,0.908,-0.21,-0.61,-0.27
318130.296000,-0.264,-0.376,0.907,-0.03,-0.64,-0.31
318130.312000,-0.266,-0.374,0.907,0.24,-0.4,-0.24
318130.312000,-0.266,-0.374,0.908,0.58,-0.09,-0.31
318130.328000,-0.27,-0.371,0.907,0.64,-0.03,-0.21
318130.343000,-0.268,-0.372,0.906,0.37,-0.03,0.09
318130.343000,-0.262,-0.374,0.905,0.0,-0.09,0.24
318130.359000,-0.263,-0.372,0.904,-0.46,0.03,0.34
318130.375000,-0.262,-0.374,0.906,-0.73,0.37,0.46
318130.390000,-0.261,-0.376,0.905,-1.04,0.49,0.55
318130.390000,-0.262,-0.374,0.905,-1.22,0.34,0.55
318130.390000,-0.258,-0.377,0.906,-1.01,0.49,0.82
318130.406000,-0.257,-0.381,0.909,-0.67,0.58,0.85
318130.421000,-0.258,-0.379,0.908,-0.31,0.58,0.64
318130.421000,-0.26,-0.38,0.907,-0.09,0.43,0.67
318130.437000,-0.259,-0.38,0.906,-0.12,0.37,0.67
318130.453000,-0.26,-0.378,0.906,-0.34,0.31,0.49
318130.453000,-0.26,-0.378,0.904,-0.55,0.58,0.49
318130.468000,-0.261,-0.379,0.905,-0.64,0.73,0.58
318130.468000,-0.261,-0.381,0.912,-0.37,1.01,0.46
318130.484000,-0.262,-0.384,0.918,0.18,1.22,0.18
318130.500000,-0.262,-0.383,0.914,0.89,1.07,-0.09
318130.500000,-0.261,-0.381,0.912,1.37,0.61,-0.31
318130.515000,-0.261,-0.377,0.914,1.31,0.55,-0.37
318130.531000,-0.263,-0.375,0.911,0.7,0.37,-0.34
318130.531000,-0.26,-0.374,0.913,0.21,0.46,-0.06
318130.546000,-0.257,-0.376,0.914,0.18,0.24,-0.06
318130.546000,-0.258,-0.377,0.911,0.37,-0.03,-0.12
318130.562000,-0.258,-0.374,0.908,0.46,-0.09,-0.24
318130.578000,-0.257,-0.373,0.902,0.27,0.24,-0.12
318130.593000,-0.26,-0.373,0.905,-0.18,0.58,0.12
318130.593000,-0.259,-0.375,0.909,-0.21,1.01,0.34
318130.609000,-0.259,-0.378,0.915,0.0,1.28,0.27
318130.609000,-0.259,-0.375,0.915,0.31,1.04,0.18
318130.625000,-0.261,-0.373,0.914,0.27,0.55,0.31
318130.640000,-0.261,-0.375,0.915,-0.43,0.46,0.4
318130.640000,-0.261,-0.378,0.919,-1.07,0.7,0.67
318130.656000,-0.264,-0.375,0.921,-1.74,0.7,1.04
318130.656000,-0.258,-0.375,0.926,-1.56,0.27,0.95
318130.687000,-0.256,-0.376,0.925,-0.67,-0.52,0.55
318130.687000,-0.257,-0.379,0.916,0.21,-1.04,0.27
318130.703000,-0.256,-0.373,0.908,0.49,-0.89,0.21
318130.703000,-0.255,-0.368,0.903,0.27,-0.34,0.34
318130.718000,-0.258,-0.369,0.906,-0.46,0.03,0.4
318130.718000,-0.26,-0.376,0.917,-0.55,0.34,0.52
318130.734000,-0.26,-0.379,0.919,0.03,0.15,0.24
318130.750000,-0.265,-0.375,0.915,0.24,-0.27,0.0
318130.750000,-0.264,-0.374,0.914,0.7,-0.4,0.27
318130.750000,-0.26,-0.372,0.914,0.67,-0.49,0.37
318130.781000,-0.262,-0.371,0.909,0.18,-0.55,0.4
318130.781000,-0.263,-0.372,0.906,-0.24,-0.55,0.55
318130.796000,-0.261,-0.371,0.905,-0.64,-0.31,0.76
318130.812000,-0.262,-0.372,0.903,-1.01,0.0,0.92
318130.812000,-0.263,-0.374,0.903,-1.28,0.12,1.04
318130.828000,-0.264,-0.377,0.906,-1.1,0.34,1.25
318130.828000,-0.265,-0.379,0.91,-0.85,0.52,1.22
318130.828000,-0.269,-0.381,0.912,-0.52,0.37,1.13
318130.859000,-0.269,-0.382,0.914,0.03,0.31,1.07
318130.859000,-0.268,-0.381,0.911,0.24,0.0,0.95
318130.859000,-0.269,-0.379,0.913,0.43,-0.09,0.55
318130.875000,-0.269,-0.377,0.912,0.52,-0.06,0.67
318130.875000,-0.269,-0.376,0.905,0.31,-0.34,0.67
318130.890000,-0.265,-0.375,0.904,-0.03,-0.46,0.85
318130.921000,-0.264,-0.377,0.906,-0.15,-0.15,1.07
318130.921000,-0.262,-0.378,0.905,-0.43,0.0,1.13
318130.937000,-0.26,-0.382,0.905,-0.37,0.15,1.37
318130.953000,-0.262,-0.383,0.902,-0.52,-0.09,1.34
318130.953000,-0.263,-0.383,0.902,-0.67,-0.18,1.13
318130.968000,-0.266,-0.384,0.904,-0.95,0.0,1.01
318130.984000,-0.266,-0.384,0.905,-1.16,0.21,1.04
318130.984000,-0.263,-0.388,0.909,-0.79,0.55,1.01
318131.000000,-0.263,-0.389,0.91,-0.46,0.58,0.64
318131.000000,-0.267,-0.387,0.911,-0.15,0.4,0.31
318131.015000,-0.267,-0.386,0.908,0.21,0.31,0.34
318131.031000,-0.261,-0.386,0.902,0.03,0.46,0.34
318131.031000,-0.262,-0.382,0.9,-0.7,0.46,0.06
318131.046000,-0.264,-0.384,0.903,-1.34,0.89,-0.03
318131.062000,-0.265,-0.386,0.908,-0.92,1.37,-0.03
318131.062000,-0.266,-0.384,0.907,-0.34,1.43,-0.15
318131.078000,-0.267,-0.381,0.907,0.09,1.46,-0.12
318131.093000,-0.263,-0.38,0.908,-0.06,1.53,0.06
318131.093000,-0.262,-0.382,0.907,-0.58,1.53,0.27
318131.109000,-0.262,-0.382,0.91,-1.25,1.5,0.12
318131.109000,-0.259,-0.384,0.913,-1.46,1.4,0.34
318131.125000,-0.259,-0.385,0.911,-1.5,1.1,0.15
318131.140000,-0.259,-0.385,0.908,-1.46,0.76,0.09
318131.140000,-0.258,-0.384,0.909,-1.07,0.85,-0.03
318131.156000,-0.26,-0.382,0.908,-0.82,1.04,-0.15
318131.171000,-0.265,-0.385,0.912,-0.55,1.4,-0.21
318131.171000,-0.268,-0.383,0.911,-0.31,1.37,-0.37
318131.187000,-0.266,-0.383,0.913,0.18,1.34,-0.61
318131.203000,-0.267,-0.381,0.914,0.67,1.04,-0.92
318131.203000,-0.268,-0.377,0.915,0.89,0.79,-1.01
318131.218000,-0.268,-0.377,0.916,0.98,0.64,-0.98
318131.218000,-0.266,-0.375,0.913,1.13,0.58,-1.04
318131.234000,-0.262,-0.371,0.91,1.43,0.37,-1.1
318131.234000,-0.263,-0.369,0.905,1.56,0.18,-1.04
318131.250000,-0.263,-0.366,0.904,1.28,0.49,-0.79
318131.265000,-0.261,-0.366,0.902,0.52,0.67,-0.43
318131.281000,-0.262,-0.367,0.906,0.09,0.95,-0.21
318131.281000,-0.264,-0.367,0.909,0.21,0.95,0.03
318131.296000,-0.268,-0.365,0.909,0.58,0.73,0.12
318131.296000,-0.268,-0.363,0.909,0.89,0.67,0.46
318131.312000,-0.268,-0.363,0.905,0.89,0.61,0.98
318131.312000,-0.267,-0.36,0.9,0.09,0.49,1.22
318131.328000,-0.266,-0.362,0.901,-0.7,0.64,1.77
318131.343000,-0.263,-0.365,0.902,-1.16,0.89,2.14
318131.359000,-0.263,-0.368,0.899,-1.5,1.01,2.41
318131.359000,-0.264,-0.369,0.902,-1.4,1.4,2.66
318131.375000,-0.266,-0.371,0.905,-1.22,1.62,2.75
318131.390000,-0.265,-0.373,0.905,-0.92,1.4,2.75
318131.390000,-0.262,-0.374,0.904,-0.61,1.25,2.84
318131.390000,-0.263,-0.374,0.909,-0.58,1.46,2.99
318131.421000,-0.265,-0.375,0.912,-0.61,1.56,3.05
318131.437000,-0.264,-0.375,0.912,-0.67,1.46,3.3
318131.437000,-0.262,-0.377,0.91,-0.7,1.16,3.36
318131.453000,-0.262,-0.38,0.911,-0.95,1.07,3.36
318131.453000,-0.261,-0.379,0.913,-0.92,1.16,3.3
318131.468000,-0.263,-0.381,0.915,-0.92,1.28,3.23
318131.484000,-0.263,-0.382,0.919,-0.7,1.53,3.33
318131.484000,-0.268,-0.38,0.922,-0.52,1.16,3.27
318131.500000,-0.267,-0.381,0.923,-0.27,0.76,3.42
318131.515000,-0.265,-0.38,0.923,-0.21,0.4,3.48
318131.515000,-0.264,-0.381,0.921,-0.52,0.06,3.51
318131.531000,-0.264,-0.382,0.921,-0.92,-0.4,3.42
318131.531000,-0.264,-0.386,0.922,-1.19,-0.85,3.33
318131.546000,-0.26,-0.387,0.921,-0.95,-1.13,3.23
318131.562000,-0.262,-0.385,0.919,-0.49,-1.34,3.02
318131.562000,-0.259,-0.385,0.912,-0.34,-1.53,3.02
318131.578000,-0.259,-0.386,0.91,-0.52,-1.53,2.99
318131.578000,-0.261,-0.385,0.91,-1.1,-1.62,2.96
318131.593000,-0.264,-0.385,0.911,-1.68,-1.68,2.96
318131.609000,-0.265,-0.387,0.915,-1.8,-1.68,2.9
318131.609000,-0.266,-0.389,0.92,-1.22,-1.56,2.72
318131.625000,-0.269,-0.39,0.922,-0.55,-1.71,2.59
318131.640000,-0.271,-0.389,0.918,0.15,-2.23,2.35
318131.640000,-0.271,-0.386,0.919,0.46,-2.56,2.04
318131.656000,-0.27,-0.385,0.913,0.18,-2.87,1.98
318131.656000,-0.269,-0.383,0.907,-0.49,-3.27,1.86
318131.671000,-0.269,-0.381,0.905,-0.85,-3.33,1.83
318131.687000,-0.268,-0.381,0.9,-1.4,-3.2,1.77
318131.687000,-0.267,-0.38,0.894,-1.71,-2.99,1.77
318131.703000,-0.266,-0.38,0.891,-1.62,-2.38,1.86
318131.718000,-0.269,-0.382,0.895,-1.37,-1.68,1.98
318131.734000,-0.274,-0.384,0.901,-1.07,-1.31,1.86
318131.734000,-0.281,-0.387,0.901,-0.43,-1.53,1.62
318131.734000,-0.287,-0.385,0.902,0.4,-1.92,1.19
318131.750000,-0.289,-0.379,0.9,0.24,-2.29,0.76
318131.765000,-0.288,-0.379,0.897,-0.21,-2.14,0.89
318131.765000,-0.287,-0.381,0.894,-0.31,-1.95,0.82
318131.781000,-0.287,-0.38,0.893,0.15,-1.62,0.82
318131.781000,-0.289,-0.378,0.891,0.61,-1.19,0.85
318131.796000,-0.287,-0.38,0.888,0.73,-1.01,0.79
318131.812000,-0.283,-0.378,0.882,0.73,-0.61,0.85
318131.812000,-0.279,-0.379,0.884,0.46,0.0,0.95
318131.828000,-0.28,-0.382,0.884,0.06,0.46,1.07
318131.843000,-0.281,-0.382,0.886,0.15,0.76,1.04
318131.843000,-0.282,-0.384,0.885,0.24,0.85,0.79
318131.859000,-0.283,-0.383,0.885,0.24,1.07,0.85
318131.875000,-0.281,-0.383,0.884,0.4,1.56,1.01
318131.890000,-0.281,-0.385,0.885,0.49,1.98,1.13
318131.890000,-0.282,-0.389,0.89,0.49,2.53,1.01
318131.906000,-0.282,-0.391,0.894,0.67,2.9,0.76
318131.921000,-0.284,-0.391,0.895,0.92,3.02,0.58
318131.921000,-0.282,-0.394,0.896,1.04,2.96,0.34
318131.937000,-0.279,-0.394,0.895,0.79,2.93,0.12
318131.953000,-0.275,-0.394,0.893,0.61,3.05,-0.15
318131.953000,-0.272,-0.395,0.897,0.4,3.63,-0.43
318131.968000,-0.276,-0.396,0.898,0.43,4.0,-0.61
318131.984000,-0.277,-0.399,0.905,1.13,4.43,-0.82
318131.984000,-0.274,-0.399,0.909,2.01,4.52,-1.1
318132.000000,-0.275,-0.394,0.908,2.32,4.0,-1.65
318132.000000,-0.276,-0.392,0.907,2.14,3.66,-2.14
318132.015000,-0.276,-0.39,0.909,2.04,3.78,-2.11
318132.031000,-0.278,-0.388,0.911,1.74,3.94,-2.29
318132.031000,-0.277,-0.387,0.912,1.71,3.72,-2.59
318132.046000,-0.275,-0.384,0.911,1.62,3.33,-2.75
318132.062000,-0.27,-0.383,0.907,1.43,3.11,-2.72
318132.078000,-0.27,-0.381,0.905,0.98,3.11,-2.72
318132.078000,-0.27,-0.382,0.909,0.64,3.33,-2.66
318132.093000,-0.268,-0.381,0.909,0.58,3.42,-2.69
318132.093000,-0.271,-0.382,0.913,0.49,3.42,-2.87
318132.109000,-0.27,-0.381,0.913,0.67,3.48,-2.81
318132.109000,-0.272,-0.38,0.912,0.58,3.3,-3.08
318132.125000,-0.272,-0.378,0.916,0.82,3.2,-3.17
318132.140000,-0.273,-0.375,0.916,1.01,3.02,-3.23
318132.140000,-0.275,-0.374,0.918,0.95,2.81,-3.14
318132.156000,-0.276,-0.373,0.92,0.98,2.66,-3.3
318132.171000,-0.276,-0.372,0.921,1.07,2.41,-3.27
318132.171000,-0.275,-0.371,0.923,1.25,2.23,-3.27
318132.187000,-0.277,-0.37,0.925,1.53,1.95,-3.45
318132.187000,-0.278,-0.368,0.923,1.8,1.37,-3.57
318132.203000,-0.278,-0.366,0.923,2.11,1.01,-3.42
318132.218000,-0.278,-0.363,0.919,1.98,0.64,-3.39
318132.218000,-0.277,-0.36,0.918,1.65,0.31,-3.17
318132.234000,-0.273,-0.361,0.917,1.22,0.24,-2.93
318132.250000,-0.272,-0.365,0.917,1.16,0.21,-2.81
318132.265000,-0.271,-0.365,0.918,1.53,0.03,-2.84
318132.265000,-0.273,-0.364,0.917,2.14,-0.4,-2.9
318132.265000,-0.272,-0.36,0.912,2.35,-0.76,-2.81
318132.281000,-0.274,-0.358,0.911,2.32,-1.04,-2.66
318132.296000,-0.274,-0.359,0.912,2.01,-0.95,-2.38
318132.312000,-0.276,-0.36,0.911,1.56,-0.82,-2.26
318132.312000,-0.278,-0.36,0.909,1.53,-0.73,-2.01
318132.328000,-0.278,-0.36,0.911,1.65,-0.95,-1.98
318132.328000,-0.277,-0.359,0.914,1.95,-1.01,-1.77
318132.343000,-0.277,-0.36,0.912,2.29,-1.04,-1.59
318132.359000,-0.278,-0.36,0.912,2.44,-0.85,-1.5
318132.359000,-0.279,-0.359,0.913,2.47,-0.92,-1.25
318132.375000,-0.281,-0.358,0.91,2.47,-1.13,-1.19
318132.390000,-0.28,-0.357,0.908,2.41,-1.25,-1.16
318132.390000,-0.281,-0.358,0.911,2.41,-1.13,-0.85
318132.406000,-0.284,-0.359,0.912,2.44,-1.22,-0.73
318132.421000,-0.286,-0.358,0.909,2.81,-1.43,-0.67
318132.421000,-0.287,-0.359,0.911,3.14,-1.59,-0.58
318132.437000,-0.288,-0.359,0.912,3.6,-1.59,-0.67
318132.453000,-0.289,-0.358,0.915,4.09,-1.56,-0.61
318132.453000,-0.289,-0.361,0.921,4.67,-1.68,-0.52
318132.468000,-0.295,-0.364,0.924,5.58,-1.89,-0.85
318132.468000,-0.299,-0.363,0.928,6.68,-2.11,-1.28
318132.484000,-0.303,-0.363,0.933,7.63,-2.38,-1.56
318132.500000,-0.305,-0.361,0.934,8.3,-3.11,-2.23
318132.500000,-0.308,-0.358,0.933,9.37,-3.97,-2.81
318132.515000,-0.308,-0.352,0.925,10.19,-4.58,-3.39
318132.515000,-0.308,-0.349,0.922,10.8,-4.73,-3.63
318132.531000,-0.304,-0.347,0.916,11.2,-4.58,-3.75
318132.546000,-0.3,-0.35,0.912,11.57,-4.3,-4.03
318132.546000,-0.295,-0.352,0.915,12.36,-4.21,-4.49
318132.562000,-0.291,-0.353,0.918,13.89,-4.39,-4.97
318132.578000,-0.286,-0.349,0.91,15.47,-4.91,-5.49
318132.593000,-0.277,-0.343,0.9,16.57,-5.13,-5.86
318132.593000,-0.269,-0.337,0.892,16.91,-4.61,-5.92
318132.609000,-0.265,-0.333,0.888,16.3,-3.91,-5.74
318132.609000,-0.261,-0.331,0.89,15.93,-2.96,-5.49
318132.625000,-0.254,-0.33,0.888,15.66,-2.26,-4.91
318132.625000,-0.248,-0.327,0.885,15.29,-1.62,-4.12
318132.640000,-0.246,-0.325,0.886,14.83,-0.49,-3.45
318132.656000,-0.248,-0.322,0.89,14.22,0.7,-2.69
318132.656000,-0.25,-0.324,0.896,13.82,1.71,-1.92
318132.671000,-0.252,-0.32,0.902,13.89,2.72,-1.34
318132.687000,-0.251,-0.314,0.901,14.04,3.23,-0.76
318132.687000,-0.251,-0.313,0.904,14.16,4.27,-0.18
318132.703000,-0.258,-0.308,0.909,13.92,5.8,0.12
318132.718000,-0.266,-0.302,0.917,13.58,7.39,0.31
318132.718000,-0.272,-0.299,0.925,13.37,8.48,0.43
318132.718000,-0.268,-0.295,0.931,12.88,8.67,0.89
318132.734000,-0.264,-0.292,0.938,12.18,8.15,1.34
318132.750000,-0.261,-0.287,0.939,11.44,7.05,1.8
318132.750000,-0.263,-0.283,0.944,10.74,6.13,2.62
318132.765000,-0.263,-0.279,0.943,10.1,5.22,3.48
318132.781000,-0.262,-0.274,0.939,9.28,4.39,4.61
318132.781000,-0.262,-0.272,0.937,7.84,3.63,6.01
318132.796000,-0.263,-0.277,0.942,6.13,3.17,7.54
318132.796000,-0.264,-0.284,0.946,4.46,3.08,8.67
318132.812000,-0.265,-0.287,0.946,2.81,2.56,9.49
318132.828000,-0.265,-0.291,0.949,1.37,1.95,10.22
318132.843000,-0.263,-0.297,0.952,0.43,1.89,11.05
318132.843000,-0.267,-0.3,0.955,-0.15,1.46,11.38
318132.859000,-0.269,-0.302,0.962,-0.34,1.07,11.51
318132.859000,-0.27,-0.309,0.964,-0.09,0.95,11.87
318132.875000,-0.274,-0.31,0.969,0.0,0.58,12.12
318132.875000,-0.275,-0.312,0.975,-0.12,-0.09,12.36
318132.906000,-0.274,-0.313,0.978,-0.34,-1.1,12.45
318132.921000,-0.269,-0.313,0.979,-0.98,-2.04,12.45
318132.921000,-0.267,-0.317,0.976,-2.59,-3.2,12.63
318132.937000,-0.263,-0.321,0.98,-4.7,-4.24,13.06
318132.953000,-0.263,-0.325,0.995,-6.74,-4.85,13.03
318132.953000,-0.266,-0.335,1.012,-8.15,-5.55,12.73
318132.968000,-0.274,-0.348,1.035,-8.61,-6.68,12.54
318132.968000,-0.281,-0.353,1.052,-9.06,-8.39,11.87
318132.984000,-0.288,-0.352,1.07,-11.63,-10.38,10.77
318133.000000,-0.29,-0.364,1.088,-14.25,-13.55,9.98
318133.000000,-0.289,-0.37,1.098,-16.75,-18.25,9.13
318133.015000,-0.284,-0.374,1.093,-18.83,-23.44,8.03
318133.031000,-0.269,-0.378,1.078,-20.33,-28.87,6.71
318133.031000,-0.25,-0.38,1.063,-20.29,-32.72,5.16
318133.046000,-0.238,-0.383,1.055,-19.01,-34.88,3.75
318133.046000,-0.235,-0.387,1.057,-16.33,-35.8,2.32
318133.062000,-0.233,-0.385,1.042,-13.28,-37.57,0.76
318133.078000,-0.224,-0.385,1.019,-10.74,-40.07,-0.55
318133.093000,-0.211,-0.373,1.01,-9.37,-42.12,-1.74
318133.093000,-0.2,-0.378,0.992,-8.0,-43.76,-2.59
318133.109000,-0.192,-0.371,0.969,-9.0,-45.11,-3.57
318133.125000,-0.183,-0.373,0.959,-9.61,-44.98,-4.39
318133.125000,-0.179,-0.37,0.953,-10.5,-44.95,-5.43
318133.125000,-0.179,-0.367,0.95,-11.2,-45.01,-6.56
318133.140000,-0.179,-0.371,0.962,-11.14,-44.47,-7.78
318133.156000,-0.183,-0.369,0.963,-10.41,-44.31,-9.16
318133.171000,-0.186,-0.362,0.957,-9.83,-45.32,-10.62
318133.171000,-0.181,-0.356,0.954,-9.16,-46.05,-11.75
318133.187000,-0.177,-0.35,0.95,-7.93,-46.75,-12.63
318133.187000,-0.172,-0.341,0.94,-6.5,-47.52,-13.43
318133.203000,-0.167,-0.333,0.929,-4.97,-47.88,-13.86
318133.218000,-0.163,-0.324,0.913,-3.48,-48.1,-14.13
318133.218000,-0.155,-0.317,0.901,-2.11,-47.79,-14.25
318133.234000,-0.149,-0.312,0.896,-0.31,-46.45,-14.1
318133.250000,-0.147,-0.305,0.888,1.95,-44.56,-13.73
318133.250000,-0.151,-0.297,0.884,4.76,-41.78,-13.52
318133.265000,-0.16,-0.294,0.884,7.87,-37.66,-12.6
318133.265000,-0.167,-0.291,0.884,8.76,-32.99,-11.54
318133.281000,-0.175,-0.293,0.895,7.17,-28.6,-10.47
318133.296000,-0.181,-0.299,0.903,4.27,-25.42,-9.28
318133.312000,-0.181,-0.305,0.903,0.82,-24.57,-8.58
318133.312000,-0.175,-0.307,0.889,-2.93,-25.64,-8.12
318133.328000,-0.164,-0.309,0.863,-7.11,-27.16,-7.63
318133.328000,-0.153,-0.31,0.834,-14.77,-27.28,-6.74
318133.343000,-0.14,-0.313,0.808,-17.18,-25.97,-6.16
318133.359000,-0.127,-0.315,0.785,-17.61,-23.47,-5.49
318133.359000,-0.115,-0.326,0.773,-15.32,-19.93,-5.22
318133.375000,-0.104,-0.335,0.771,-11.47,-16.24,-5.07
318133.375000,-0.102,-0.334,0.764,-6.81,-12.05,-4.73
318133.390000,-0.097,-0.325,0.758,-3.6,-7.81,-3.88
318133.406000,-0.096,-0.319,0.755,-1.95,-3.57,-2.78
318133.421000,-0.091,-0.314,0.756,-2.04,1.01,-1.25
318133.437000,-0.087,-0.313,0.763,-3.75,5.13,0.37
318133.437000,-0.079,-0.32,0.782,-5.37,9.58,2.17
318133.453000,-0.072,-0.328,0.8,-6.26,13.86,3.69
318133.453000,-0.066,-0.345,0.828,-5.13,17.91,5.16
318133.468000,-0.06,-0.358,0.86,-1.34,21.94,6.07
318133.484000,-0.056,-0.362,0.882,3.39,24.57,6.41
318133.484000,-0.057,-0.367,0.896,8.73,26.4,6.74
318133.500000,-0.055,-0.369,0.902,13.52,27.53,6.71
318133.500000,-0.054,-0.363,0.903,15.66,28.02,6.07
318133.515000,-0.054,-0.355,0.907,15.11,27.92,6.01
318133.515000,-0.052,-0.351,0.913,12.27,28.23,5.71
318133.531000,-0.055,-0.351,0.921,7.45,28.53,5.46
318133.531000,-0.054,-0.359,0.949,3.2,29.6,5.34
318133.562000,-0.058,-0.373,0.988,1.89,31.34,4.58
318133.562000,-0.068,-0.381,1.016,3.51,31.74,3.51
318133.562000,-0.074,-0.381,1.033,7.05,30.92,2.47
318133.578000,-0.08,-0.377,1.05,11.26,29.88,1.37
318133.593000,-0.079,-0.369,1.058,14.59,28.53,0.37
318133.609000,-0.078,-0.355,1.057,16.17,27.1,-0.49
318133.625000,-0.08,-0.343,1.052,15.17,25.61,-1.04
318133.625000,-0.081,-0.334,1.052,11.87,24.26,-1.07
318133.640000,-0.082,-0.331,1.064,7.11,23.04,-0.76
318133.640000,-0.086,-0.335,1.082,2.66,21.64,-0.52
318133.656000,-0.092,-0.338,1.098,-0.24,18.86,-0.64
318133.671000,-0.094,-0.346,1.113,-0.46,15.08,-0.58
318133.671000,-0.091,-0.347,1.114,1.28,10.68,-0.61
318133.671000,-0.088,-0.335,1.099,2.9,5.92,-0.55
318133.703000,-0.082,-0.327,1.078,3.27,1.86,0.09
318133.703000,-0.071,-0.321,1.057,1.8,-1.25,0.89
318133.718000,-0.067,-0.315,1.039,-1.4,-3.88,1.62
318133.718000,-0.065,-0.317,1.032,-5.22,-5.52,2.44
318133.734000,-0.069,-0.322,1.033,-9.22,-6.62,3.45
318133.750000,-0.071,-0.331,1.036,-12.54,-7.84,4.18
318133.765000,-0.075,-0.342,1.053,-13.49,-8.94,4.64
318133.765000,-0.079,-0.356,1.076,-11.84,-10.44,4.79
318133.781000,-0.083,-0.362,1.086,-8.0,-12.82,4.24
318133.781000,-0.091,-0.354,1.078,-4.15,-16.42,3.33
318133.796000,-0.09,-0.343,1.067,-1.62,-19.78,3.08
318133.812000,-0.083,-0.331,1.047,-1.25,-22.31,3.17
318133.812000,-0.073,-0.32,1.028,-4.09,-24.6,3.6
318133.828000,-0.07,-0.314,1.016,-8.36,-25.73,3.63
318133.843000,-0.07,-0.311,1.015,-12.73,-26.0,3.63
318133.843000,-0.072,-0.317,1.024,-15.84,-26.25,3.72
318133.859000,-0.079,-0.319,1.033,-17.27,-27.56,3.54
318133.859000,-0.083,-0.324,1.041,-16.72,-28.93,3.2
318133.875000,-0.088,-0.326,1.042,-14.95,-30.79,2.56
318133.890000,-0.092,-0.32,1.032,-13.15,-33.3,1.89
318133.890000,-0.094,-0.313,1.014,-11.96,-35.68,1.43
318133.906000,-0.095,-0.304,0.996,-12.05,-37.48,1.43
318133.921000,-0.096,-0.299,0.971,-14.07,-38.33,1.53
318133.921000,-0.096,-0.297,0.951,-17.55,-38.51,1.77
318133.937000,-0.098,-0.296,0.931,-22.1,-38.24,1.92
318133.953000,-0.103,-0.299,0.919,-26.67,-37.97,2.2
318133.953000,-0.104,-0.305,0.909,-30.46,-37.45,2.75
318133.968000,-0.107,-0.313,0.902,-32.69,-36.77,3.05
318133.984000,-0.11,-0.323,0.891,-33.91,-36.53,3.45
318133.984000,-0.111,-0.328,0.873,-35.13,-37.02,3.85
318134.000000,-0.104,-0.334,0.848,-36.74,-38.09,4.18
318134.000000,-0.096,-0.341,0.822,-39.64,-39.58,4.52
318134.015000,-0.084,-0.346,0.791,-43.86,-41.84,5.16
318134.031000,-0.07,-0.35,0.748,-49.53,-45.59,5.58
318134.031000,-0.051,-0.36,0.717,-55.12,-50.14,6.35
318134.046000,-0.023,-0.386,0.712,-57.86,-54.45,7.08
318134.046000,-0.001,-0.413,0.718,-55.48,-57.92,7.23
318134.062000,0.016,-0.43,0.72,-47.49,-61.04,6.78
318134.078000,0.027,-0.441,0.729,-33.69,-63.26,6.53
318134.093000,0.029,-0.443,0.739,-15.59,-62.87,7.75
318134.093000,0.031,-0.441,0.747,2.69,-58.9,12.02
318134.109000,0.032,-0.422,0.798,15.99,-48.16,16.42
318134.109000,0.013,-0.449,0.868,21.58,-32.14,21.24
318134.125000,-0.006,-0.489,0.938,20.17,-14.44,26.34
318134.140000,-0.039,-0.506,1.007,14.44,1.5,30.58
318134.140000,-0.063,-0.532,1.07,6.35,12.67,35.8
318134.156000,-0.074,-0.557,1.126,-4.52,16.91,40.74
318134.156000,-0.072,-0.58,1.172,-16.17,16.57,44.4
318134.171000,-0.057,-0.612,1.186,-27.65,11.41,46.88
318134.187000,-0.026,-0.639,1.144,-40.47,2.93,46.94
318134.203000,0.017,-0.639,1.077,-52.8,-5.34,45.2
318134.203000,0.071,-0.633,1.001,-62.59,-12.97,43.03
318134.218000,0.123,-0.621,0.92,-70.74,-19.93,40.1
318134.234000,0.173,-0.607,0.844,-77.91,-25.45,37.02
318134.234000,0.208,-0.595,0.784,-84.99,-27.59,33.91
318134.250000,0.229,-0.583,0.749,-91.92,-27.16,29.63
318134.250000,0.235,-0.579,0.736,-96.99,-26.58,24.08
318134.265000,0.24,-0.589,0.754,-96.65,-26.28,17.58
318134.281000,0.233,-0.594,0.779,-88.35,-26.15,10.8
318134.281000,0.212,-0.587,0.813,-72.88,-25.91,4.49
318134.296000,0.195,-0.6,0.851,-50.69,-25.88,-0.61
318134.312000,0.175,-0.596,0.866,-25.64,-27.1,-5.25
318134.312000,0.154,-0.561,0.856,-2.59,-28.78,-9.13
318134.328000,0.137,-0.529,0.839,15.99,-30.21,-10.68
318134.328000,0.125,-0.506,0.823,27.92,-30.46,-10.47
318134.343000,0.109,-0.492,0.822,32.35,-29.21,-9.52
318134.359000,0.088,-0.482,0.83,30.0,-27.86,-8.27
318134.375000,0.064,-0.477,0.836,22.19,-27.44,-7.23
318134.375000,0.044,-0.478,0.841,12.21,-28.23,-6.16
318134.390000,0.031,-0.488,0.845,2.66,-29.85,-4.49
318134.390000,0.024,-0.492,0.841,-5.46,-32.01,-2.78
318134.390000,0.018,-0.499,0.843,-11.84,-34.46,-0.61
318134.421000,0.014,-0.527,0.853,-13.76,-36.13,2.04
318134.421000,0.01,-0.547,0.856,-11.54,-37.48,4.03
318134.437000,0.006,-0.555,0.845,-6.23,-38.91,5.92
318134.437000,0.004,-0.558,0.824,0.31,-40.31,8.7
318134.453000,0.002,-0.567,0.808,7.26,-40.93,12.42
318134.468000,0.011,-0.583,0.79,13.79,-40.5,16.63
318134.468000,0.021,-0.595,0.773,18.31,-38.88,20.11
318134.484000,0.028,-0.602,0.759,20.02,-36.04,22.74
318134.500000,0.035,-0.609,0.754,19.87,-32.5,24.93
318134.515000,0.039,-0.614,0.758,18.71,-29.24,26.92
318134.515000,0.053,-0.62,0.771,18.31,-26.22,28.35
318134.531000,0.077,-0.616,0.799,21.15,-22.71,28.72
318134.531000,0.102,-0.593,0.842,27.62,-19.23,27.74
318134.546000,0.133,-0.574,0.891,38.85,-16.17,26.12
318134.562000,0.169,-0.575,0.953,56.55,-12.05,24.66
318134.562000,0.202,-0.58,0.994,79.35,-7.42,22.1
318134.578000,0.22,-0.57,1.022,103.58,-2.78,17.24
318134.593000,0.226,-0.538,1.04,125.28,-0.43,10.96
318134.593000,0.218,-0.495,1.044,142.83,-2.56,3.45
318134.593000,0.22,-0.438,1.024,154.15,-7.63,-4.18
318134.609000,0.224,-0.367,1.013,157.93,-13.25,-10.71
318134.625000,0.231,-0.314,0.991,157.44,-18.52,-14.34
318134.640000,0.238,-0.26,0.954,152.35,-22.95,-15.23
318134.640000,0.243,-0.202,0.929,142.64,-25.94,-12.48
318134.656000,0.244,-0.175,0.93,131.14,-29.21,-6.41
318134.671000,0.231,-0.151,0.911,118.56,-34.0,1.74
318134.671000,0.213,-0.133,0.905,106.3,-37.81,13.37
318134.687000,0.202,-0.14,0.902,95.83,-39.92,27.99
318134.703000,0.179,-0.145,0.887,83.19,-41.63,42.76
318134.718000,0.161,-0.163,0.87,67.54,-42.39,57.56
318134.718000,0.154,-0.194,0.863,48.8,-40.71,69.95
318134.718000,0.151,-0.218,0.878,26.03,-39.09,78.28
318134.734000,0.141,-0.255,0.911,3.39,-38.09,83.07
318134.750000,0.134,-0.307,0.953,-14.44,-37.23,85.39
318134.750000,0.129,-0.354,0.986,-25.85,-36.74,85.39
318134.765000,0.136,-0.395,0.999,-31.65,-37.6,84.02
318134.781000,0.153,-0.428,1.0,-32.56,-39.37,81.67
318134.796000,0.168,-0.451,0.993,-29.33,-40.38,78.28
318134.796000,0.176,-0.465,0.966,-24.2,-40.8,74.5
318134.812000,0.186,-0.479,0.935,-20.14,-40.99,70.25
318134.812000,0.197,-0.494,0.918,-17.33,-39.89,65.16
318134.828000,0.199,-0.5,0.905,-15.93,-38.21,58.81
318134.843000,0.195,-0.504,0.904,-15.2,-36.53,51.85
318134.843000,0.187,-0.512,0.906,-13.61,-34.27,45.96
318134.859000,0.182,-0.512,0.895,-11.14,-32.38,40.35
318134.875000,0.18,-0.505,0.887,-8.39,-30.43,34.76
318134.875000,0.177,-0.496,0.887,-5.77,-27.68,29.76
318134.890000,0.168,-0.482,0.883,-4.39,-25.03,25.27
318134.890000,0.16,-0.473,0.873,-3.14,-22.92,21.76
318134.906000,0.16,-0.457,0.843,-1.89,-18.86,16.39
318134.921000,0.158,-0.441,0.816,-3.05,-15.66,14.5
318134.921000,0.158,-0.439,0.819,-4.46,-10.74,12.39
318134.937000,0.168,-0.453,0.837,-5.92,-6.2,8.09
318134.953000,0.141,-0.444,0.826,-6.84,-1.95,8.33
318134.953000,0.116,-0.391,0.861,-3.6,0.46,9.86
318134.968000,0.144,-0.42,0.85,-4.24,-0.34,5.68
318134.984000,0.134,-0.377,0.835,-4.21,2.72,4.82
318134.984000,0.145,-0.35,0.835,-5.77,5.34,7.45
318135.000000,0.175,-0.373,0.815,-8.33,8.15,9.34
318135.000000,0.156,-0.353,0.825,-13.76,13.4,7.75
318135.015000,0.141,-0.342,0.886,-18.46,18.86,8.64
318135.031000,0.146,-0.359,0.928,-20.6,19.23,9.64
318135.031000,0.151,-0.367,0.948,-19.01,17.49,9.16
318135.046000,0.149,-0.36,0.968,-15.11,16.11,8.18
318135.062000,0.148,-0.344,0.967,-11.51,12.33,7.69
318135.062000,0.156,-0.329,0.942,-9.8,7.69,7.84
318135.078000,0.169,-0.317,0.915,-10.35,5.1,8.51
318135.093000,0.181,-0.309,0.897,-13.12,4.58,10.01
318135.093000,0.189,-0.319,0.888,-17.09,6.16,11.87
318135.109000,0.189,-0.33,0.893,-21.79,8.73,13.03
318135.109000,0.188,-0.343,0.912,-24.96,10.96,13.37
318135.125000,0.185,-0.359,0.94,-25.61,11.78,12.82
318135.140000,0.182,-0.374,0.958,-23.59,10.8,11.29
318135.140000,0.185,-0.389,0.969,-19.17,9.49,9.61
318135.156000,0.177,-0.401,0.963,-13.4,8.76,8.39
318135.171000,0.202,-0.576,0.837,11.54,19.65,4.76
318135.171000,0.233,-0.344,1.143,20.81,27.22,-2.47
318135.187000,0.198,-0.356,0.853,12.02,1.19,1.74
318135.187000,0.215,-0.468,0.883,19.68,13.55,4.12
318135.203000,0.183,-0.387,1.039,19.59,22.52,-1.04
318135.218000,0.182,-0.391,0.986,16.72,13.4,-1.5
318135.218000,0.146,-0.365,0.965,17.91,14.16,-2.32
318135.234000,0.13,-0.353,0.981,16.94,15.53,-1.01
318135.250000,0.11,-0.332,0.993,14.34,13.76,0.76
318135.250000,0.096,-0.336,0.961,11.08,9.31,5.1
318135.265000,0.093,-0.354,0.946,7.75,6.41,10.53
318135.281000,0.099,-0.384,0.943,5.71,3.81,14.77
318135.281000,0.119,-0.394,0.928,3.48,0.98,18.16
318135.296000,0.13,-0.407,0.9,2.84,0.12,19.65
318135.296000,0.138,-0.416,0.895,1.46,0.0,18.71
318135.312000,0.15,-0.42,0.891,1.16,0.18,17.76
318135.328000,0.149,-0.432,0.89,3.08,1.83,16.02
318135.328000,0.149,-0.411,0.907,1.98,2.35,13.21
318135.343000,0.152,-0.416,0.89,1.98,2.38,12.18
318135.359000,0.162,-0.42,0.892,1.13,3.27,10.68
318135.359000,0.163,-0.41,0.894,-0.52,3.11,8.67
318135.375000,0.163,-0.392,0.899,-1.16,3.27,7.78
318135.375000,0.164,-0.366,0.899,-2.47,2.47,7.54
318135.390000,0.16,-0.327,0.891,-5.37,1.74,8.42
318135.406000,0.15,-0.329,0.899,-10.83,1.65,10.99
318135.406000,0.147,-0.355,0.912,-15.63,1.31,13.58
318135.421000,0.141,-0.396,0.938,-17.46,0.76,14.25
318135.421000,0.192,-0.674,1.008,-7.51,2.11,14.19
318135.437000,0.171,-0.558,0.975,20.54,4.79,4.43
318135.453000,0.164,-0.188,0.911,27.83,1.28,-3.02
318135.453000,0.187,-0.318,0.836,9.92,-4.58,11.69
318135.468000,0.177,-0.486,0.831,-0.03,0.85,13.34
318135.468000,0.16,-0.458,0.948,-7.17,8.42,7.11
318135.484000,0.145,-0.384,0.948,-10.65,4.94,4.85
318135.500000,0.153,-0.368,0.925,-10.71,3.75,6.93
318135.500000,0.15,-0.386,0.943,-11.75,4.36,8.12
318135.531000,0.13,-0.401,0.961,-13.89,2.81,7.84
318135.531000,0.119,-0.412,0.974,-13.73,1.01,7.69
318135.546000,0.121,-0.393,0.977,-12.24,-1.89,7.29
318135.562000,0.135,-0.387,0.957,-9.09,-2.72,8.09
318135.562000,0.127,-0.396,0.968,-7.11,-2.14,8.82
318135.562000,0.114,-0.416,0.976,-5.43,-3.69,9.13
318135.593000,0.115,-0.381,0.948,-6.87,-7.11,8.03
318135.593000,0.138,-0.399,0.884,-7.42,-7.66,9.0
318135.593000,0.149,-0.417,0.896,-6.78,-3.3,9.64
318135.625000,0.14,-0.418,0.909,-7.35,-1.89,9.46
318135.625000,0.137,-0.451,0.888,-3.11,-0.06,8.82
318135.640000,0.134,-0.407,0.894,2.9,3.3,6.96
318135.640000,0.122,-0.373,0.876,2.84,1.95,7.81
318135.656000,0.134,-0.434,0.87,0.24,1.92,10.86
318135.671000,0.102,-0.458,0.884,4.33,6.65,9.09
318135.671000,0.117,-0.352,0.928,2.87,6.32,7.11
318135.687000,0.102,-0.406,0.872,0.43,2.14,10.86
318135.703000,0.11,-0.371,0.927,-2.14,4.82,9.19
318135.703000,0.121,-0.407,0.89,-4.12,4.24,11.17
318135.718000,0.114,-0.42,0.907,-2.2,8.67,11.26
318135.734000,0.115,-0.385,0.915,-1.1,9.77,11.2
318135.734000,0.127,-0.38,0.897,-0.55,9.19,13.06
318135.750000,0.131,-0.415,0.895,-1.04,9.22,14.4
318135.750000,0.124,-0.394,0.898,-2.38,8.48,13.7
318135.765000,0.124,-0.389,0.896,-5.37,6.99,14.92
318135.781000,0.129,-0.413,0.908,-8.18,6.29,15.93
318135.781000,0.126,-0.439,0.916,-7.45,7.42,15.78
318135.796000,0.12,-0.44,0.936,-3.97,9.19,13.76
318135.796000,0.117,-0.432,0.931,-0.27,9.64,13.28
318135.812000,0.108,-0.452,0.934,4.27,11.11,13.55
318135.828000,0.098,-0.437,0.954,6.01,11.69,12.6
318135.843000,0.092,-0.434,0.943,5.34,10.8,12.12
318135.843000,0.088,-0.451,0.935,4.91,11.38,11.44
318135.859000,0.108,-0.444,0.954,3.36,11.66,9.61
318135.859000,0.062,-0.464,0.938,2.14,9.92,9.03
318135.875000,0.063,-0.394,0.955,0.64,7.93,6.32
318135.890000,0.074,-0.382,0.907,-4.3,2.35,7.02
318135.890000,0.074,-0.405,0.905,-9.31,0.79,8.06
318135.906000,0.067,-0.428,0.913,-10.71,1.46,8.51
318135.921000,0.069,-0.405,0.927,-8.94,2.38,8.33
318135.921000,0.078,-0.417,0.92,-6.99,2.32,9.19
318135.937000,0.075,-0.435,0.925,-5.07,3.17,9.46
318135.953000,0.065,-0.435,0.933,-2.81,3.14,9.58
318135.953000,0.075,-0.437,0.922,-1.89,1.92,9.92
318135.968000,0.082,-0.455,0.919,-1.8,2.29,10.25
318135.984000,0.088,-0.465,0.925,-2.96,2.69,9.95
318135.984000,0.099,-0.49,0.927,-3.27,2.62,9.25
318136.000000,0.103,-0.494,0.938,-2.44,3.05,7.23
318136.000000,0.107,-0.497,0.96,-1.86,3.45,5.55
318136.015000,0.099,-0.504,0.969,-0.58,3.45,4.0
318136.031000,0.08,-0.482,0.984,0.85,3.33,1.98
318136.031000,0.077,-0.483,0.982,2.04,2.32,1.34
318136.046000,0.073,-0.519,1.014,5.98,3.57,-0.03
318136.046000,0.053,-0.463,0.997,6.23,-1.68,-3.69
318136.062000,0.058,-0.414,0.973,4.76,-5.25,-5.01
318136.078000,0.052,-0.397,0.944,0.03,-8.0,-4.18
318136.078000,0.053,-0.39,0.916,-5.22,-8.61,-3.66
318136.093000,0.049,-0.364,0.915,-10.44,-7.75,-2.84
318136.109000,0.046,-0.358,0.904,-15.9,-8.09,-1.62
318136.109000,0.059,-0.4,0.91,-16.08,-5.62,0.21
318136.125000,0.056,-0.408,0.935,-12.27,-3.11,0.12
318136.125000,0.052,-0.396,0.926,-7.75,-4.06,-0.03
318136.140000,0.055,-0.344,0.912,-4.33,-5.4,0.49
318136.156000,0.057,-0.402,0.901,-4.76,-7.29,3.39
318136.171000,0.063,-0.345,0.893,-2.38,-5.07,2.72
318136.171000,0.06,-0.382,0.878,-9.06,-7.2,6.23
318136.187000,0.074,-0.49,0.878,-3.14,-2.32,7.87
318136.203000,0.072,-0.424,0.904,2.75,0.89,4.79
318136.203000,0.067,-0.424,0.858,3.63,-2.08,5.83
318136.218000,0.082,-0.487,0.845,7.78,0.49,7.02
318136.218000,0.075,-0.447,0.868,8.48,2.66,4.97
318136.234000,0.059,-0.431,0.851,4.94,1.65,4.61
318136.250000,0.063,-0.453,0.868,2.5,3.63,4.82
318136.265000,0.062,-0.456,0.886,2.9,6.1,3.51
318136.265000,0.044,-0.424,0.893,4.73,7.9,2.5
318136.281000,0.062,-0.405,0.909,4.46,7.87,3.3
318136.281000,0.072,-0.451,0.92,4.09,7.48,4.88
318136.296000,0.053,-0.404,0.925,4.64,8.09,2.84
318136.312000,0.065,-0.42,0.923,3.78,8.73,4.24
318136.312000,0.065,-0.412,0.935,5.28,9.8,4.12
318136.328000,0.053,-0.381,0.933,0.0,7.57,4.73
318136.328000,0.058,-0.445,0.93,-2.35,7.17,6.81
318136.343000,0.063,-0.454,0.961,-2.69,7.42,5.89
318136.343000,0.061,-0.462,0.966,-0.79,5.52,4.88
318136.359000,0.06,-0.456,0.951,1.22,3.08,3.91
318136.375000,0.07,-0.456,0.934,3.17,1.4,3.63
318136.390000,0.069,-0.453,0.919,2.84,-0.24,3.05
318136.390000,0.07,-0.448,0.908,1.01,-1.25,2.87
318136.406000,0.075,-0.45,0.895,-0.67,-1.13,3.2
318136.421000,0.071,-0.449,0.908,-1.22,0.89,3.57
318136.437000,0.068,-0.438,0.904,-1.37,2.38,4.09
318136.437000,0.057,-0.426,0.902,-5.77,2.01,3.78
318136.453000,0.049,-0.425,0.91,-9.86,2.62,4.64
318136.453000,0.052,-0.451,0.914,-12.09,4.43,6.1
318136.468000,0.078,-0.557,0.966,-10.44,6.35,6.16
318136.484000,0.05,-0.569,0.937,5.25,7.6,0.37
318136.484000,0.04,-0.351,0.96,6.5,0.4,0.98
318136.500000,0.061,-0.468,0.874,5.22,4.15,-1.04
318136.500000,0.055,-0.51,0.902,4.79,5.71,-4.18
318136.500000,0.038,-0.449,0.918,2.56,4.12,-3.45
318136.531000,0.046,-0.439,0.917,2.56,3.81,-2.78
318136.531000,0.057,-0.453,0.918,3.33,4.0,-3.33
318136.531000,0.046,-0.427,0.908,1.77,3.75,-3.02
318136.546000,0.051,-0.436,0.91,-0.37,4.06,-1.83
318136.546000,0.047,-0.437,0.916,-1.4,4.55,-1.37
318136.562000,0.042,-0.437,0.927,-1.83,4.73,-1.13
318136.593000,0.034,-0.423,0.937,-2.59,3.6,-1.43
318136.593000,0.042,-0.439,0.927,-3.91,1.43,-1.43
318136.609000,0.045,-0.469,0.933,0.46,3.14,-1.37
318136.609000,0.045,-0.447,0.944,3.39,2.93,-2.87
318136.625000,0.055,-0.455,0.924,6.81,2.47,-2.84
318136.640000,0.056,-0.454,0.915,10.68,3.81,-3.27
318136.640000,0.057,-0.451,0.908,11.54,4.43,-3.88
318136.656000,0.063,-0.465,0.889,12.94,6.01,-3.81
318136.671000,0.056,-0.431,0.903,12.21,7.63,-4.88
318136.671000,0.052,-0.423,0.887,8.55,6.38,-4.46
318136.687000,0.05,-0.431,0.889,3.69,6.32,-4.18
318136.703000,0.044,-0.424,0.906,-0.49,6.68,-4.79
318136.703000,0.036,-0.418,0.923,-3.33,6.32,-4.61
318136.718000,0.035,-0.413,0.932,-4.36,6.04,-4.06
318136.718000,0.037,-0.411,0.959,-4.21,5.92,-4.03
318136.734000,0.037,-0.416,0.961,-2.62,4.79,-4.18
318136.750000,0.034,-0.413,0.957,0.06,5.16,-4.12
318136.750000,0.031,-0.407,0.957,2.29,6.1,-3.97
318136.765000,0.03,-0.416,0.957,4.36,5.52,-3.88
318136.781000,0.037,-0.426,0.957,7.11,4.7,-4.39
318136.781000,0.042,-0.42,0.947,9.16,3.72,-5.19
318136.796000,0.046,-0.429,0.936,10.1,2.87,-5.68
318136.812000,0.047,-0.43,0.928,10.22,2.87,-6.2
318136.812000,0.045,-0.431,0.928,8.85,2.38,-6.32
318136.828000,0.049,-0.447,0.925,7.17,1.62,-6.29
318136.843000,0.053,-0.441,0.91,5.98,1.04,-6.93
318136.843000,0.054,-0.425,0.897,3.14,1.1,-7.35
318136.859000,0.056,-0.435,0.899,-0.37,1.68,-7.05
318136.859000,0.053,-0.423,0.904,-2.75,2.41,-7.45
318136.875000,0.051,-0.409,0.911,-4.67,3.11,-7.45
318136.890000,0.052,-0.416,0.919,-5.16,3.69,-6.87
318136.890000,0.051,-0.417,0.925,-3.45,4.21,-7.08
318136.906000,0.05,-0.411,0.94,-0.21,4.64,-7.39
318136.921000,0.046,-0.401,0.939,3.39,4.24,-7.2
318136.921000,0.085,-0.633,0.972,12.12,6.26,-6.84
318136.937000,0.027,-0.398,0.979,27.1,7.72,-18.04
318136.937000,0.032,-0.241,0.886,19.75,-0.98,-16.3
318136.953000,0.064,-0.426,0.877,9.95,0.03,-7.05
318136.968000,0.027,-0.408,0.928,4.24,4.09,-9.92
318136.968000,0.029,-0.364,0.931,-0.03,4.09,-10.62
318136.984000,0.053,-0.393,0.947,-0.46,4.15,-8.79
318137.000000,0.048,-0.397,0.945,2.53,3.48,-9.31
318137.000000,0.045,-0.389,0.935,4.85,2.75,-9.58
318137.015000,0.048,-0.385,0.924,5.19,2.29,-8.85
318137.031000,0.052,-0.388,0.915,4.61,2.32,-8.3
318137.031000,0.056,-0.39,0.92,3.6,2.75,-8.18
318137.046000,0.055,-0.392,0.929,2.93,3.23,-8.15
318137.046000,0.053,-0.391,0.929,2.47,3.42,-8.12
318137.062000,0.052,-0.391,0.934,1.46,3.57,-7.84
318137.062000,0.052,-0.389,0.938,-0.24,3.75,-7.17
318137.078000,0.051,-0.383,0.946,-2.23,3.97,-6.29
318137.093000,0.053,-0.38,0.952,-4.64,3.88,-4.91
318137.109000,0.055,-0.38,0.95,-6.68,4.06,-3.75
318137.109000,0.046,-0.375,0.953,-8.45,4.3,-2.93
318137.125000,0.041,-0.383,0.957,-9.74,3.91,-1.92
318137.140000,0.039,-0.4,0.962,-8.0,3.78,-1.04
318137.140000,0.041,-0.416,0.946,-4.15,2.96,-1.16
318137.156000,0.066,-0.479,0.907,4.3,3.78,-1.22
318137.156000,0.071,-0.47,0.916,17.27,7.9,-3.05
318137.171000,0.073,-0.417,0.881,19.47,5.25,-5.89
318137.187000,0.089,-0.406,0.837,17.0,5.04,-6.87
318137.203000,0.093,-0.417,0.822,11.14,9.92,-7.35
318137.203000,0.098,-0.393,0.846,3.39,17.09,-8.64
318137.203000,0.087,-0.342,0.861,-9.25,18.31,-8.58
318137.234000,0.017,-0.394,0.872,-24.78,16.54,-6.59
318137.234000,0.063,-0.436,0.925,-34.09,17.7,-6.47
318137.250000,0.087,-0.398,0.922,-41.29,16.85,-9.92
318137.250000,0.014,-0.364,0.927,-51.61,13.06,-11.78
318137.265000,0.039,-0.398,0.936,-57.07,12.15,-6.99
318137.281000,0.048,-0.407,0.95,-60.12,12.21,-5.1
318137.296000,0.018,-0.41,0.968,-60.76,12.51,-3.33
318137.296000,0.026,-0.449,0.97,-58.5,11.47,-0.21
318137.312000,0.029,-0.49,0.956,-52.52,11.17,-0.12
318137.312000,0.016,-0.472,0.959,-45.11,11.81,-1.62
318137.328000,-0.002,-0.495,0.956,-36.29,10.68,-1.34
318137.343000,-0.002,-0.539,0.959,-26.09,7.54,0.27
318137.343000,0.009,-0.589,0.911,-12.05,4.15,-2.62
318137.359000,-0.006,-0.529,0.93,2.9,9.74,-9.31
318137.359000,-0.056,-0.467,0.968,13.79,19.71,-8.03
318137.375000,0.126,-0.471,0.898,17.7,13.52,-5.46
318137.390000,-0.04,-0.378,0.834,-3.72,-1.16,-13.37
318137.406000,-0.02,-0.474,0.83,-15.5,-1.16,-3.08
318137.406000,0.042,-0.516,0.872,-18.16,3.85,-0.98
318137.421000,0.048,-0.458,0.872,-19.68,1.16,-2.5
318137.421000,0.041,-0.446,0.806,-20.02,-0.79,-1.22
318137.437000,0.053,-0.463,0.836,-20.75,2.29,-1.19
318137.437000,0.048,-0.48,0.843,-22.92,1.4,-0.98
318137.453000,0.037,-0.502,0.819,-25.12,0.43,1.04
318137.468000,0.045,-0.522,0.786,-29.57,-0.43,4.46
318137.468000,0.042,-0.534,0.724,-38.64,-1.25,5.8
318137.484000,0.068,-0.574,0.621,-56.34,-0.67,6.78
318137.484000,0.075,-0.624,0.535,-86.92,1.04,5.49
318137.500000,0.093,-0.621,0.475,-123.45,7.2,0.18
318137.515000,0.096,-0.56,0.463,-156.65,18.13,-6.16
318137.531000,0.086,-0.562,0.426,-184.27,27.19,-9.83
318137.531000,0.041,-0.547,0.485,-206.76,44.4,-14.74
318137.546000,0.015,-0.669,0.588,-220.86,49.35,-6.44
318137.562000,-0.11,-0.731,0.6,-228.71,58.44,2.47
318137.562000,-0.11,-0.76,0.658,-232.34,78.1,9.61
318137.562000,-0.193,-0.715,0.68,-245.92,86.55,11.02
318137.593000,-0.314,-0.868,0.876,-254.62,100.74,27.95
318137.593000,-0.229,-1.092,0.989,-243.75,98.54,37.75
318137.593000,-0.24,-1.115,1.051,-229.41,80.87,27.07
318137.625000,-0.275,-1.114,1.099,-200.96,62.44,18.31
318137.625000,-0.239,-1.121,1.068,-161.69,42.3,13.12
318137.625000,-0.21,-1.092,0.998,-123.17,22.34,8.12
318137.640000,-0.166,-1.053,0.91,-86.89,7.57,3.36
318137.656000,-0.141,-0.992,0.815,-59.02,-3.17,-3.23
318137.671000,-0.117,-0.924,0.728,-44.68,-11.9,-9.37
318137.671000,-0.102,-0.873,0.647,-39.46,-18.92,-13.18
318137.687000,-0.089,-0.837,0.582,-41.9,-24.32,-14.62
318137.703000,-0.074,-0.825,0.533,-49.59,-28.2,-14.01
318137.718000,-0.071,-0.831,0.506,-59.72,-30.58,-12.63
318137.718000,-0.076,-0.851,0.492,-70.68,-32.04,-10.65
318137.718000,-0.107,-0.786,0.443,-81.33,-32.17,-8.7
318137.734000,-0.116,-0.581,0.341,-90.98,-25.54,4.73
318137.750000,-0.055,-0.772,0.316,-114.41,-19.53,24.51
318137.765000,-0.061,-0.973,0.307,-147.62,-17.3,23.65
318137.765000,-0.083,-1.002,0.315,-173.74,-12.42,10.38
318137.781000,-0.116,-0.966,0.32,-193.64,-10.9,0.37
318137.796000,-0.126,-0.962,0.288,-208.44,-11.78,-0.46
318137.796000,-0.111,-1.001,0.243,-218.39,-12.94,2.72
318137.812000,-0.092,-1.038,0.209,-222.33,-12.3,4.46
318137.812000,-0.066,-1.064,0.203,-221.23,-10.99,4.3
318137.828000,-0.055,-1.114,0.208,-210.21,-10.04,1.62
318137.828000,-0.036,-1.166,0.192,-189.21,-10.04,-4.06
318137.843000,-0.027,-1.158,0.171,-164.13,-8.33,-13.76
318137.859000,-0.042,-1.134,0.146,-135.2,-7.81,-21.58
318137.875000,-0.047,-1.096,0.109,-97.66,-8.33,-22.64
318137.875000,-0.051,-1.06,0.054,-47.79,-9.46,-15.75
318137.890000,-0.062,-1.06,-0.084,-7.48,-11.81,-11.63
318137.890000,-0.044,-0.985,-0.127,-0.24,-11.47,-15.63
318137.906000,-0.027,-0.89,-0.16,0.46,-8.88,-17.15
318137.921000,-0.019,-0.796,-0.156,-5.4,-3.33,-11.51
318137.921000,-0.045,-0.847,-0.205,-11.02,-0.06,2.53
318137.937000,-0.046,-1.023,-0.274,-7.26,15.44,10.01
318137.953000,-0.005,-1.07,-0.191,-18.62,35.55,3.72
318137.953000,-0.042,-1.084,-0.179,-25.97,48.22,-6.2
318137.968000,-0.107,-1.043,-0.105,-30.52,55.15,-10.56
318137.968000,-0.115,-1.004,-0.045,-33.63,53.77,-7.6
318137.984000,-0.193,-0.773,-0.043,-34.39,49.59,-2.35
318138.000000,-0.102,-0.89,-0.05,-29.79,49.2,14.28
318138.015000,-0.097,-1.009,0.013,-45.63,39.31,18.89
318138.015000,-0.124,-1.038,0.015,-51.06,31.04,14.77
318138.031000,-0.12,-1.018,0.058,-49.44,28.05,10.77
318138.031000,-0.066,-1.109,0.052,-42.51,24.81,7.48
318138.046000,-0.033,-1.243,0.161,-43.95,14.5,-3.97
318138.062000,-0.059,-1.211,0.155,1.13,-6.71,-29.11
318138.062000,-0.09,-1.051,0.064,32.44,0.58,-27.16
318138.062000,-0.038,-1.01,-0.044,42.73,0.82,-27.22
318138.078000,0.016,-1.029,0.073,61.89,-9.0,-27.04
318138.093000,-0.036,-1.028,-0.004,68.51,-10.62,-27.83
318138.109000,-0.035,-0.984,-0.069,64.21,-4.79,-29.97
318138.109000,0.017,-0.92,-0.05,53.04,-1.74,-29.51
318138.109000,0.024,-0.956,-0.024,35.71,0.18,-30.0
318138.125000,0.027,-0.975,0.038,19.56,4.15,-33.3
318138.140000,0.015,-0.961,0.104,7.39,3.17,-35.77
318138.156000,0.009,-0.928,0.118,3.2,-2.59,-34.64
318138.156000,0.027,-0.921,0.101,4.73,-7.42,-29.48
318138.171000,0.04,-0.94,0.076,6.53,-13.0,-24.35
318138.187000,0.035,-0.966,0.047,7.69,-17.64,-21.36
318138.187000,0.042,-1.003,0.039,8.33,-20.72,-20.11
318138.187000,0.056,-1.032,0.061,9.92,-25.06,-22.19
318138.203000,0.067,-0.966,0.09,11.69,-36.1,-25.51
318138.234000,0.089,-1.005,-0.071,16.14,-50.11,-20.81
318138.234000,0.108,-1.034,-0.228,18.49,-36.23,-16.54
318138.250000,0.074,-0.903,-0.088,14.19,-0.18,-26.43
318138.250000,0.072,-0.84,0.033,5.1,8.21,-30.61
318138.250000,0.059,-0.834,0.033,-5.92,0.37,-25.24
318138.281000,0.042,-0.927,-0.042,-9.77,-1.43,-18.37
318138.281000,0.052,-1.034,-0.024,-16.08,2.78,-18.25
318138.296000,0.053,-1.033,0.055,-26.86,2.11,-25.09
318138.312000,0.045,-1.0,0.117,-32.26,-3.66,-30.61
318138.312000,0.048,-1.004,0.14,-24.35,-10.32,-33.08
318138.328000,0.062,-1.037,0.126,-8.55,-15.29,-32.72
318138.343000,0.072,-1.061,0.111,7.08,-19.68,-32.32
318138.343000,0.083,-1.042,0.078,22.34,-22.68,-32.01
318138.359000,0.1,-1.036,0.03,34.03,-23.87,-29.91
318138.359000,0.111,-1.051,-0.004,37.81,-24.26,-29.45
318138.375000,0.111,-1.029,-0.021,36.59,-23.8,-31.68
318138.390000,0.114,-0.992,-0.036,34.15,-22.61,-32.53
318138.390000,0.13,-0.979,-0.024,30.06,-19.35,-32.01
318138.406000,0.142,-0.934,-0.004,24.96,-17.61,-32.53
318138.421000,0.145,-0.877,-0.02,21.94,-17.15,-31.19
318138.421000,0.144,-0.904,-0.065,18.22,-14.04,-25.91
318138.437000,0.165,-1.023,-0.027,9.31,-6.16,-24.23
318138.453000,0.165,-1.003,0.032,1.43,-2.69,-26.64
318138.453000,0.138,-1.008,0.049,-5.62,-3.88,-27.1
318138.468000,0.132,-0.991,0.056,-8.64,-5.55,-28.02
318138.468000,0.141,-0.833,0.073,-4.88,-5.74,-25.82
318138.484000,0.082,-0.535,-0.09,-5.28,-11.72,-7.02
318138.484000,0.211,-1.31,-0.063,-23.87,2.99,1.5
318138.500000,0.237,-1.293,0.197,-27.34,8.18,-27.56
318138.515000,0.15,-0.963,0.118,-6.74,-3.72,-31.04
318138.531000,0.144,-0.852,0.005,6.2,-9.52,-20.84
318138.531000,0.19,-0.899,0.009,7.17,-6.5,-11.63
318138.546000,0.197,-0.935,0.029,5.31,-6.56,-8.12
318138.562000,0.17,-0.973,0.026,10.1,-4.91,-6.13
318138.562000,0.15,-0.995,0.041,15.78,-0.64,-1.65
318138.578000,0.148,-0.998,0.047,17.46,1.04,4.33
318138.593000,0.158,-0.983,0.035,17.88,1.43,7.35
318138.593000,0.163,-0.96,0.029,16.36,1.8,6.68
318138.593000,0.171,-0.951,0.039,12.33,1.89,5.77
318138.609000,0.17,-0.951,0.045,8.97,0.7,4.52
318138.625000,0.174,-0.945,0.057,9.89,0.34,2.53
318138.640000,0.165,-0.944,0.069,14.77,0.34,1.4
318138.656000,0.149,-0.959,0.073,20.33,0.03,2.59
318138.656000,0.135,-0.983,0.083,26.25,-0.06,5.62
318138.671000,0.118,-1.031,0.11,33.48,-0.09,10.38
318138.671000,0.119,-1.064,0.121,44.59,0.43,16.05
318138.687000,0.125,-1.037,0.109,56.92,0.89,20.26
318138.703000,0.135,-1.0,0.111,63.6,0.43,23.13
318138.703000,0.158,-0.995,0.09,68.06,-1.77,22.52
318138.718000,0.177,-0.961,0.096,68.7,-3.17,17.33
318138.718000,0.183,-0.935,0.104,68.36,-4.76,12.45
318138.734000,0.179,-0.919,0.097,64.21,-6.9,10.68
318138.750000,0.168,-0.901,0.088,54.11,-8.24,10.68
318138.765000,0.155,-0.913,0.081,42.15,-6.93,11.41
318138.765000,0.143,-0.937,0.084,33.27,-1.46,12.21
318138.781000,0.138,-0.963,0.122,24.63,6.41,12.91
318138.781000,0.126,-0.992,0.165,15.93,10.44,13.15
318138.796000,0.117,-1.021,0.203,9.43,10.44,12.63
318138.812000,0.116,-1.038,0.231,7.42,8.15,11.26
318138.812000,0.12,-1.034,0.238,9.61,4.27,9.06
318138.828000,0.125,-1.022,0.236,12.97,0.27,6.68
318138.828000,0.121,-1.011,0.228,16.11,-2.66,4.7
318138.843000,0.113,-1.002,0.221,16.21,-5.1,3.75
318138.859000,0.109,-1.002,0.21,13.86,-6.35,3.81
318138.859000,0.106,-1.014,0.201,13.58,-6.23,4.0
318138.875000,0.096,-1.008,0.186,14.92,-4.64,3.66
318138.875000,0.101,-0.996,0.171,13.79,-2.38,4.03
318138.890000,0.121,-1.026,0.179,11.81,0.37,3.08
318138.906000,0.127,-1.063,0.21,13.52,3.63,-2.56
318138.906000,0.12,-1.088,0.245,18.92,5.43,-10.8
318138.921000,0.112,-1.091,0.279,22.37,3.42,-18.31
318138.937000,0.119,-1.116,0.314,27.89,-0.12,-25.18
318138.937000,0.125,-1.145,0.292,43.15,-2.78,-32.41
318138.953000,0.127,-1.095,0.336,50.94,-5.16,-40.44
318138.953000,0.134,-1.04,0.31,54.81,-14.5,-43.61
318138.968000,0.146,-1.014,0.282,55.09,-20.63,-42.79
318138.984000,0.169,-1.002,0.271,52.58,-22.43,-41.63
318139.000000,0.183,-0.996,0.271,49.47,-22.83,-41.23
318139.000000,0.196,-0.988,0.274,47.06,-21.18,-41.47
318139.015000,0.208,-0.991,0.267,44.68,-18.22,-42.09
318139.015000,0.222,-1.007,0.289,45.29,-14.68,-44.4
318139.031000,0.232,-1.016,0.298,48.55,-13.46,-49.2
318139.046000,0.236,-0.996,0.293,47.94,-13.79,-55.21
318139.046000,0.242,-0.965,0.284,44.8,-14.53,-60.4
318139.062000,0.247,-0.944,0.266,42.82,-14.59,-64.0
318139.078000,0.258,-0.915,0.262,39.46,-12.51,-65.61
318139.078000,0.265,-0.88,0.267,34.52,-10.13,-64.21
318139.093000,0.274,-0.867,0.259,29.05,-7.97,-59.88
318139.093000,0.277,-0.863,0.259,23.22,-5.65,-55.33
318139.109000,0.277,-0.854,0.267,16.27,-3.78,-49.96
318139.125000,0.276,-0.835,0.271,9.0,-3.97,-44.07
318139.140000,0.279,-0.827,0.259,2.66,-5.92,-37.97
318139.140000,0.29,-0.84,0.257,-3.81,-6.65,-31.25
318139.156000,0.295,-0.866,0.278,-8.79,-5.01,-25.21
318139.171000,0.304,-0.878,0.321,-11.87,-4.33,-21.18
318139.171000,0.303,-0.881,0.34,-13.4,-7.02,-19.59
318139.187000,0.304,-0.881,0.337,-14.77,-10.59,-18.1
318139.203000,0.306,-0.891,0.347,-14.01,-13.06,-16.88
318139.203000,0.307,-0.905,0.341,-11.44,-14.98,-17.73
318139.218000,0.308,-0.906,0.341,-8.67,-16.39,-19.26
318139.218000,0.304,-0.904,0.329,-7.2,-16.91,-19.26
318139.234000,0.306,-0.891,0.326,-8.91,-16.14,-19.32
318139.250000,0.313,-0.872,0.321,-11.26,-15.93,-19.75
318139.250000,0.315,-0.857,0.317,-14.68,-15.23,-18.37
318139.265000,0.322,-0.841,0.307,-18.52,-14.65,-15.53
318139.281000,0.341,-0.83,0.302,-22.49,-14.31,-11.66
318139.281000,0.347,-0.834,0.292,-29.45,-14.56,-6.32
318139.296000,0.349,-0.876,0.264,-34.67,-14.86,-1.31
318139.312000,0.357,-0.879,0.251,-36.59,-14.31,-0.12
318139.343000,0.362,-0.855,0.237,-38.73,-14.47,0.52
318139.343000,0.355,-0.878,0.203,-39.61,-15.08,2.11
318139.343000,0.361,-0.903,0.211,-40.22,-13.67,1.77
318139.359000,0.357,-0.88,0.203,-40.41,-12.18,0.82
318139.359000,0.361,-0.892,0.18,-37.48,-8.94,0.82
318139.359000,0.364,-0.882,0.168,-35.8,-5.34,0.37
318139.375000,0.37,-0.863,0.172,-41.08,-3.88,1.95
318139.390000,0.366,-0.879,0.166,-48.01,-3.27,3.48
318139.390000,0.367,-0.91,0.179,-49.35,1.13,3.05
318139.406000,0.358,-0.913,0.198,-49.01,4.03,1.56
318139.421000,0.35,-0.915,0.205,-48.04,4.18,1.37
318139.421000,0.341,-0.926,0.209,-45.69,3.54,1.53
318139.437000,0.326,-0.948,0.209,-44.37,1.89,2.23
318139.453000,0.356,-0.972,0.202,-44.25,0.03,1.22
318139.453000,0.401,-0.862,0.191,-34.49,0.37,-2.23
318139.468000,0.367,-0.902,0.179,-25.09,1.43,-0.95
318139.468000,0.333,-0.913,0.173,-25.61,0.64,-0.49
318139.484000,0.351,-0.924,0.173,-25.97,-1.16,0.06
318139.500000,0.352,-0.934,0.166,-26.46,-1.68,-0.31
318139.500000,0.341,-0.939,0.159,-26.7,-1.01,-1.19
318139.515000,0.353,-0.93,0.157,-26.49,-0.73,-1.62
318139.531000,0.353,-0.925,0.146,-27.22,-1.07,-2.01
318139.531000,0.351,-0.913,0.137,-25.3,-0.43,-3.45
318139.546000,0.35,-0.901,0.133,-24.23,-0.79,-4.09
318139.546000,0.353,-0.897,0.126,-22.89,-1.71,-4.21
318139.562000,0.358,-0.896,0.123,-20.39,-2.47,-4.36
318139.578000,0.356,-0.902,0.124,-18.89,-2.99,-3.91
318139.593000,0.355,-0.925,0.129,-17.27,-3.08,-4.0
318139.593000,0.355,-0.93,0.137,-15.47,-3.14,-4.97
318139.609000,0.35,-0.932,0.129,-15.44,-4.12,-4.7
318139.609000,0.346,-0.931,0.121,-13.76,-4.55,-4.43
318139.625000,0.349,-0.913,0.108,-12.67,-4.7,-3.45
318139.640000,0.352,-0.914,0.092,-9.92,-3.51,-2.75
318139.640000,0.351,-0.897,0.091,-8.61,-2.72,-1.77
318139.656000,0.356,-0.878,0.073,-8.58,-1.28,-0.55
318139.656000,0.361,-0.887,0.071,-9.4,-0.12,-0.76
318139.671000,0.359,-0.906,0.076,-8.94,0.34,-1.28
318139.687000,0.36,-0.925,0.095,-7.93,-0.12,-2.2
318139.687000,0.351,-0.948,0.087,-10.9,-2.72,-1.19
318139.703000,0.359,-0.963,0.09,-8.55,-0.89,-3.51
318139.718000,0.362,-0.943,0.112,-5.62,-0.64,-5.13
318139.734000,0.364,-0.951,0.1,-6.13,-2.69,-5.77
318139.734000,0.37,-0.943,0.112,-3.69,-3.17,-7.35
318139.750000,0.37,-0.931,0.11,-4.27,-5.22,-7.81
318139.750000,0.374,-0.907,0.094,-5.04,-7.42,-7.26
318139.765000,0.381,-0.902,0.075,-3.14,-7.69,-6.9
318139.781000,0.382,-0.9,0.077,-0.67,-6.35,-8.15
318139.781000,0.38,-0.903,0.066,0.55,-5.86,-9.13
318139.796000,0.378,-0.896,0.055,2.5,-4.82,-11.08
318139.812000,0.37,-0.882,0.053,3.51,-3.66,-13.06
318139.812000,0.369,-0.888,0.052,3.11,-2.56,-12.33
318139.828000,0.364,-0.903,0.065,2.38,-0.95,-9.77
318139.828000,0.362,-0.922,0.071,1.25,0.92,-5.8
318139.843000,0.371,-0.928,0.083,-0.46,3.02,-1.8
318139.859000,0.381,-0.944,0.096,-1.98,4.15,0.27
318139.875000,0.386,-0.945,0.116,-3.02,3.91,0.21
318139.875000,0.381,-0.94,0.113,-3.2,2.14,-0.82
318139.890000,0.379,-0.929,0.104,-2.2,0.46,-1.77
318139.890000,0.383,-0.928,0.098,-0.73,-1.07,-3.02
318139.906000,0.387,-0.927,0.099,0.06,-2.29,-4.79
318139.921000,0.382,-0.934,0.095,0.79,-3.33,-6.01
318139.921000,0.39,-0.945,0.09,3.36,-3.91,-5.68
318139.937000,0.391,-0.935,0.072,4.58,-3.54,-6.2
318139.953000,0.388,-0.939,0.066,3.39,-1.46,-5.68
318139.953000,0.39,-0.932,0.068,1.59,-0.12,-5.16
318139.968000,0.39,-0.926,0.069,-0.61,0.34,-5.04
318139.984000,0.391,-0.921,0.073,-2.26,0.31,-5.04
318139.984000,0.394,-0.918,0.074,-3.02,0.18,-4.91
318140.000000,0.398,-0.924,0.075,-2.96,0.0,-5.65
318140.015000,0.399,-0.929,0.083,-1.77,0.06,-7.42
318140.015000,0.401,-0.921,0.09,0.18,-0.34,-9.25
318140.031000,0.403,-0.912,0.085,0.64,-1.5,-10.28
318140.031000,0.402,-0.917,0.075,-1.04,-2.29,-9.0
318140.046000,0.4,-0.922,0.072,-2.59,-1.62,-7.11
318140.046000,0.398,-0.925,0.07,-4.06,-0.73,-5.25
318140.062000,0.4,-0.925,0.075,-4.76,0.64,-4.64
318140.078000,0.398,-0.93,0.078,-4.52,1.74,-5.46
318140.093000,0.397,-0.923,0.081,-4.88,2.17,-6.78
318140.093000,0.4,-0.917,0.084,-5.77,1.62,-7.63
