t_monotonic,ax,ay,az,gx,gy,gz
502070.343000,-0.303,-0.34,1.01,-118.08,-34.58,144.26
502070.390000,-0.484,-0.697,0.849,-116.58,-31.07,91.37
502070.437000,-0.566,-0.73,0.699,-74.95,-30.88,57.28
502070.484000,-0.571,-0.76,0.672,-43.64,-25.85,23.9
502070.531000,-0.571,-0.617,0.661,38.45,-43.4,-10.25
502070.578000,-0.439,-0.583,0.694,32.26,-37.84,-35.95
502070.625000,-0.317,-0.445,0.776,51.18,-27.16,-50.75
502070.671000,-0.21,-0.362,0.826,28.35,-24.17,-51.03
502070.734000,-0.15,-0.27,0.724,24.51,8.51,-21.09
502070.781000,-0.198,-0.379,0.777,-15.81,37.42,-11.23
502070.828000,-0.265,-0.526,0.805,-14.34,57.95,-5.37
502070.875000,-0.262,-0.548,0.933,-3.69,28.6,-26.15
502070.921000,-0.196,-0.326,0.983,-8.88,23.19,1.31
502070.968000,-0.247,-0.376,0.911,-30.24,11.08,23.1
502071.015000,-0.257,-0.65,0.858,-14.47,14.04,30.15
502071.078000,-0.419,-0.489,0.781,4.76,27.59,-12.15
502071.125000,-0.34,-0.412,0.839,13.92,4.09,6.41
502071.171000,-0.302,-0.396,0.752,10.9,18.86,5.13
502071.218000,-0.368,-0.468,0.794,16.24,30.09,10.83
502071.265000,-0.417,-0.417,0.868,43.64,14.95,12.02
502071.312000,-0.423,-0.4,0.857,30.73,9.8,10.1
502071.359000,-0.42,-0.431,0.87,9.13,16.42,0.27
502071.406000,-0.454,-0.375,0.867,17.24,21.55,-4.46
502071.453000,-0.437,-0.373,0.848,8.45,22.64,-16.39
502071.500000,-0.467,-0.387,0.852,10.68,20.23,-5.89
502071.546000,-0.443,-0.418,0.825,11.35,32.38,-19.96
502071.593000,-0.48,-0.363,0.822,-15.26,31.68,-29.21
502071.640000,-0.538,-0.407,0.83,-3.54,29.15,-15.93
502071.687000,-0.521,-0.386,0.783,-4.09,18.65,-17.82
502071.734000,-0.477,-0.405,0.774,5.13,14.31,-14.37
502071.781000,-0.495,-0.384,0.812,5.22,16.27,-8.03
502071.828000,-0.535,-0.496,0.806,16.72,20.69,-4.64
502071.875000,-0.476,-0.319,0.791,6.16,8.36,-16.27
502071.921000,-0.489,-0.289,0.811,-0.79,5.34,-1.8
502071.968000,-0.499,-0.465,0.737,-2.47,28.69,-15.78
502072.015000,-0.563,-0.359,0.886,-2.38,17.09,-10.96
502072.062000,-0.523,-0.393,0.778,6.01,-14.53,5.07
502072.109000,-0.557,-0.406,0.738,-15.59,-18.13,-1.01
502072.156000,-0.433,-0.663,0.8,56.61,-40.59,23.04
502072.203000,-0.48,-0.399,0.677,69.64,-27.19,8.85
502072.250000,-0.501,-0.306,0.88,81.88,-16.39,-13.09
502072.296000,-0.489,-0.216,0.887,74.01,-21.39,-7.48
502072.343000,-0.423,-0.175,0.923,53.74,-17.61,-21.94
502072.390000,-0.442,-0.187,0.982,45.11,-25.7,-29.27
502072.437000,-0.357,-0.124,0.928,29.73,-30.52,-38.67
502072.484000,-0.358,-0.06,0.971,39.22,-18.56,-37.63
502072.531000,-0.306,-0.002,0.956,5.83,-31.22,-38.51
502072.578000,-0.339,-0.009,1.003,17.76,-17.27,-14.25
502072.625000,-0.308,-0.052,0.958,-7.75,-20.2,-3.57
502072.671000,-0.3,-0.155,0.969,1.19,-15.17,5.98
502072.718000,-0.295,-0.107,0.911,3.94,-7.08,-0.76
502072.765000,-0.326,-0.153,1.019,-9.09,-20.14,-9.89
502072.812000,-0.291,-0.134,0.941,4.88,-22.37,-0.79
502072.859000,-0.262,-0.166,0.959,-8.91,-19.07,-7.6
502072.906000,-0.24,-0.168,0.958,1.13,-20.66,-6.56
502072.953000,-0.229,-0.14,0.971,-10.59,-26.83,-16.14
502073.000000,-0.182,-0.179,0.974,-6.59,-12.15,-7.2
502073.046000,-0.194,-0.184,1.016,0.7,-15.9,-12.09
502073.093000,-0.137,-0.13,0.917,-3.11,-7.26,-7.97
502073.140000,-0.157,-0.181,0.95,1.4,4.15,-9.55
502073.187000,-0.157,-0.166,0.89,11.99,24.93,-8.06
502073.234000,-0.167,-0.197,0.882,-11.6,50.23,-22.19
502073.281000,-0.289,-0.124,1.001,3.94,69.06,-33.66
502073.328000,-0.275,-0.166,1.144,-18.71,55.67,-32.47
502073.375000,-0.293,-0.095,1.101,16.14,31.53,-27.16
502073.421000,-0.292,-0.14,0.999,4.64,10.41,-14.01
502073.468000,-0.32,-0.204,0.937,-0.27,10.62,-19.1
502073.515000,-0.373,-0.35,0.887,-12.82,17.7,-17.15
502073.562000,-0.372,-0.268,0.865,21.12,14.44,-20.08
502073.609000,-0.46,-0.162,0.961,33.78,16.79,-21.33
502073.656000,-0.39,-0.117,0.939,16.91,9.28,-25.85
502073.703000,-0.397,-0.036,0.993,14.1,8.21,-18.68
502073.750000,-0.372,-0.14,0.931,-1.04,8.45,-11.9
502073.796000,-0.393,-0.174,0.935,1.92,13.61,-22.25
502073.843000,-0.438,-0.177,0.967,19.01,9.25,-15.59
502073.890000,-0.418,-0.138,0.921,9.31,8.88,-11.75
502073.953000,-0.369,-0.152,0.894,-9.7,-7.63,-9.46
502074.000000,-0.425,-0.141,0.947,-0.92,-4.88,-24.72
502074.046000,-0.382,-0.177,0.977,-24.38,-18.37,-18.56
502074.093000,-0.329,-0.186,0.917,-16.51,-18.4,-27.01
502074.140000,-0.273,-0.174,0.889,-20.84,-10.35,-22.28
502074.187000,-0.3,-0.233,0.916,-38.91,-7.32,-18.28
502074.234000,-0.322,-0.281,0.92,-11.54,-0.61,-11.14
502074.281000,-0.324,-0.315,0.918,-2.23,-3.6,-5.22
502074.328000,-0.348,-0.255,0.961,35.34,-3.3,28.78
502074.375000,-0.308,-0.21,0.944,50.6,-9.64,39.8
502074.421000,-0.284,-0.179,0.922,24.9,-7.66,29.66
502074.468000,-0.323,-0.15,0.949,13.34,-2.32,11.08
502074.515000,-0.317,-0.152,0.946,4.09,7.57,1.43
502074.562000,-0.324,-0.129,0.914,-6.35,0.0,2.66
502074.609000,-0.34,-0.166,0.955,-2.9,7.14,7.6
502074.656000,-0.335,-0.161,0.931,-21.94,5.13,3.51
502074.703000,-0.304,-0.225,0.835,-12.18,8.82,10.9
502074.750000,-0.307,-0.258,0.716,-23.1,31.16,14.07
502074.796000,-0.389,-0.326,0.755,-45.87,37.02,-1.01
502074.843000,-0.424,-0.305,0.733,-21.36,57.41,5.77
502074.890000,-0.413,-0.303,0.621,-56.25,61.1,-1.04
502074.937000,-0.568,-0.335,0.816,-26.73,84.41,3.81
502074.984000,-0.645,-0.281,0.955,0.76,64.85,-12.79
502075.031000,-0.665,-0.212,1.017,-28.93,72.24,-4.27
502075.078000,-0.619,-0.205,0.818,5.65,36.99,19.59
502075.125000,-0.517,-0.229,0.399,-96.38,113.65,40.35
502075.171000,-0.591,-0.4,0.52,-122.84,127.75,35.43
502075.218000,-0.835,-0.297,0.364,-30.03,70.38,65.4
502075.265000,-0.913,-0.267,0.369,-48.16,31.34,46.08
502075.312000,-0.936,-0.247,0.244,-17.7,41.57,52.74
502075.359000,-0.899,-0.329,0.185,-65.4,54.41,31.65
502075.406000,-0.939,-0.269,0.051,-92.99,101.81,5.43
502075.453000,-1.093,-0.338,0.117,-121.01,137.12,14.5
502075.500000,-1.108,-0.446,0.121,-45.87,107.24,24.08
502075.546000,-1.005,-0.346,-0.059,-81.73,109.65,-1.46
502075.593000,-1.02,-0.272,-0.09,-164.07,127.93,-21.36
502075.640000,-1.058,-0.39,-0.206,-166.57,101.96,4.97
502075.687000,-1.106,-0.522,-0.333,-174.32,86.25,0.73
502075.734000,-1.11,-0.409,-0.277,-83.35,58.02,4.09
502075.781000,-1.028,-0.394,-0.3,15.14,10.65,45.14
502075.828000,-0.925,-0.378,-0.333,17.98,-19.44,32.69
502075.875000,-0.917,-0.263,-0.321,15.96,-26.67,1.53
502075.921000,-0.936,-0.187,-0.319,8.48,-28.84,-4.46
502075.968000,-0.975,-0.12,-0.316,1.65,-41.99,-11.75
502076.015000,-0.951,-0.11,-0.332,-9.95,-44.47,2.66
502076.062000,-0.945,-0.123,-0.289,-14.34,-39.37,1.83
502076.109000,-0.892,-0.155,-0.316,-22.83,-51.55,1.25
502076.156000,-0.841,-0.203,-0.348,-44.47,-53.22,2.11
502076.203000,-0.896,-0.183,-0.374,-29.69,-27.44,-1.98
502076.250000,-0.975,-0.17,-0.365,-26.52,1.31,-1.95
502076.296000,-1.137,-0.095,-0.298,-27.34,4.67,-6.71
502076.359000,-1.034,-0.105,-0.268,-29.79,-5.01,-8.7
502076.406000,-1.053,0.021,-0.338,-21.36,-10.28,-7.63
502076.453000,-1.051,-0.105,-0.44,-44.13,25.57,28.78
502076.500000,-0.758,-0.474,-0.172,-75.69,50.39,7.39
502076.546000,-0.605,-0.309,0.102,74.37,9.28,-58.66
502076.593000,-0.719,-0.002,-0.292,20.45,-64.24,-25.57
502076.656000,-0.836,-0.24,-0.09,31.22,-14.37,10.86
502076.703000,-1.146,-0.125,-0.211,55.42,-23.68,-1.77
502076.750000,-1.223,-0.235,-0.254,53.13,-18.77,29.57
502076.796000,-1.179,-0.49,-0.155,-25.57,-15.41,1.95
502076.843000,-1.127,-0.428,-0.06,-17.15,-21.61,-40.5
502076.890000,-1.013,-0.18,-0.133,24.84,-42.33,-52.13
502076.937000,-0.939,-0.21,-0.152,-38.09,-37.26,-44.19
502076.984000,-0.979,-0.236,-0.054,-15.72,-24.51,-31.56
502077.031000,-0.976,-0.339,-0.084,-34.15,-27.86,-24.38
502077.078000,-0.965,-0.309,-0.014,-41.75,-4.67,-44.56
502077.125000,-1.001,-0.456,0.007,-76.11,-18.25,-47.24
502077.171000,-0.95,-0.44,-0.096,-51.67,-19.1,-53.22
502077.218000,-0.924,-0.467,-0.06,-44.92,-16.42,-57.34
502077.265000,-0.957,-0.377,-0.163,-5.58,-21.58,-48.22
502077.312000,-0.914,-0.374,-0.13,18.52,-17.7,-38.09
502077.359000,-0.893,-0.355,-0.134,23.59,-23.62,-36.93
502077.406000,-0.798,-0.384,-0.146,9.77,-24.6,-30.88
502077.453000,-0.685,-0.391,-0.103,19.53,-8.58,-19.26
502077.500000,-0.742,-0.528,-0.082,1.71,6.44,2.59
502077.546000,-0.873,-0.517,-0.053,-9.58,24.87,-1.71
502077.593000,-0.919,-0.609,0.019,-8.03,20.87,-8.91
502077.640000,-0.846,-0.531,-0.024,0.89,10.44,-17.61
502077.687000,-0.783,-0.504,-0.022,-11.78,2.11,-12.63
502077.734000,-0.778,-0.489,-0.066,0.34,-2.5,-10.22
502077.781000,-0.796,-0.608,-0.096,-41.78,5.83,2.44
502077.828000,-0.87,-0.613,-0.108,-11.84,5.34,-1.77
502077.875000,-0.846,-0.64,-0.092,4.55,-0.43,1.8
502077.921000,-0.78,-0.509,-0.083,21.52,-10.5,-6.87
502077.968000,-0.764,-0.556,-0.081,9.74,-8.03,3.6
502078.015000,-0.811,-0.591,-0.09,1.98,-3.69,-6.29
502078.062000,-0.837,-0.592,-0.059,2.53,-1.95,0.12
502078.109000,-0.807,-0.608,-0.069,0.06,1.37,-5.98
502078.156000,-0.778,-0.56,-0.056,5.37,-7.14,-6.44
502078.203000,-0.761,-0.582,-0.102,7.32,-1.43,0.0
502078.250000,-0.788,-0.585,-0.083,0.37,2.78,2.2
502078.296000,-0.827,-0.618,-0.035,3.63,2.84,1.53
502078.343000,-0.8,-0.627,-0.05,2.87,0.12,1.74
502078.390000,-0.786,-0.598,-0.026,7.29,0.73,-0.76
502078.437000,-0.788,-0.602,-0.031,3.6,-0.34,2.35
502078.484000,-0.802,-0.607,-0.024,3.08,3.14,0.73
502078.531000,-0.807,-0.616,-0.019,-0.18,-2.11,0.89
502078.593000,-0.798,-0.626,-0.056,-4.61,0.76,0.0
502078.656000,-0.797,-0.568,-0.046,5.55,-4.21,-2.93
502078.703000,-0.789,-0.579,-0.032,1.01,0.34,0.92
502078.750000,-0.791,-0.581,-0.023,-1.86,-1.13,0.43
502078.796000,-0.783,-0.565,-0.042,-0.46,0.58,5.25
502078.843000,-0.798,-0.576,-0.019,0.34,-1.71,6.9
502078.890000,-0.794,-0.572,-0.038,-1.62,-2.38,9.92
502078.937000,-0.803,-0.582,-0.041,0.64,-0.73,10.1
502078.984000,-0.825,-0.591,-0.029,-2.87,0.61,9.98
502079.031000,-0.82,-0.581,-0.035,0.67,-0.06,8.42
502079.078000,-0.827,-0.601,-0.024,-0.76,0.76,8.73
502079.125000,-0.829,-0.593,-0.048,1.83,-2.72,5.95
502079.171000,-0.822,-0.604,-0.053,-0.67,0.43,6.41
502079.218000,-0.843,-0.586,-0.047,0.89,0.61,-0.89
502079.265000,-0.84,-0.607,-0.022,1.46,2.26,0.34
502079.312000,-0.832,-0.584,-0.027,6.62,-1.62,-4.21
502079.359000,-0.821,-0.571,-0.027,5.71,-0.64,-3.66
502079.406000,-0.818,-0.597,-0.017,6.16,3.17,-8.7
502079.453000,-0.814,-0.522,-0.012,10.93,4.88,-3.33
502079.500000,-0.827,-0.56,0.01,12.3,0.52,-1.59
502079.546000,-0.815,-0.549,-0.029,8.03,-0.37,-1.86
502079.593000,-0.802,-0.602,-0.003,5.55,3.57,-4.39
502079.640000,-0.778,-0.535,-0.048,27.89,16.45,9.49
502079.687000,-0.842,-0.601,0.065,10.44,-1.22,-1.71
502079.734000,-0.862,-0.627,0.139,17.82,1.37,-2.17
502079.796000,-0.772,-0.601,-0.183,21.61,-8.03,0.79
502079.843000,-0.78,-0.618,-0.07,18.25,-6.53,-9.03
502079.890000,-0.825,-0.577,0.026,21.24,1.56,-7.84
502079.937000,-0.83,-0.571,0.103,20.14,-6.32,-4.0
502079.984000,-0.833,-0.58,0.139,-6.53,-21.61,-9.8
502080.031000,-0.741,-0.596,-0.04,22.22,-2.26,4.21
502080.078000,-0.751,-0.582,0.059,8.76,-5.74,-4.12
502080.125000,-0.802,-0.575,0.126,23.13,18.22,2.9
502080.171000,-0.845,-0.601,0.212,-3.85,-13.15,0.92
502080.218000,-0.86,-0.494,0.101,2.66,13.06,12.7
502080.265000,-0.764,-0.703,0.072,-0.12,-7.87,1.56
502080.328000,-0.825,-0.585,0.181,14.83,19.81,-3.17
502080.375000,-0.876,-0.601,0.25,-11.35,-13.86,-7.32
502080.421000,-0.88,-0.581,0.058,8.15,14.19,4.39
502080.468000,-0.752,-0.676,0.015,3.3,-10.96,-10.01
502080.515000,-0.787,-0.598,0.12,10.99,20.42,-6.78
502080.562000,-0.836,-0.612,0.264,1.86,-2.35,-9.64
502080.609000,-0.726,-0.63,-0.015,3.72,-6.56,-2.93
502080.656000,-0.759,-0.71,0.016,8.82,-10.32,-8.82
502080.703000,-0.737,-0.599,-0.002,7.81,9.58,-9.16
502080.750000,-0.775,-0.625,0.167,8.7,20.81,-10.59
502080.796000,-0.844,-0.607,0.283,-3.08,14.19,-13.4
502080.843000,-0.38,-0.824,-0.374,3.05,71.5,-1.4
502080.890000,-0.824,-0.569,-0.086,3.57,-20.66,-9.58
502080.937000,-0.736,-0.684,0.061,-5.65,10.32,-0.43
502080.984000,-0.729,-0.602,0.17,-5.34,17.67,-14.5
502081.031000,-0.824,-0.635,0.34,-29.79,2.93,-11.23
502081.078000,-0.655,-0.796,-0.194,15.96,-13.06,4.58
502081.125000,-0.716,-0.762,-0.072,18.62,0.52,-2.17
502081.171000,-0.763,-0.641,0.047,20.94,-0.12,8.55
502081.218000,-0.719,-0.63,0.132,13.7,-0.79,2.5
502081.265000,-0.798,-0.635,0.355,-36.84,17.0,-11.69
502081.312000,-0.645,-0.806,-0.331,-6.04,9.4,-2.2
502081.359000,-0.743,-0.67,-0.087,27.65,-2.5,-2.93
502081.406000,-0.739,-0.699,0.056,24.45,-8.09,0.82
502081.453000,-0.739,-0.651,0.187,-3.05,5.01,-4.58
502081.500000,-0.815,-0.648,0.292,-17.82,-16.3,-6.32
502081.546000,-0.766,-0.676,-0.011,-12.82,27.89,-7.75
502081.593000,-0.687,-0.676,-0.056,19.35,-15.84,-3.57
502081.640000,-0.726,-0.643,0.168,11.66,3.39,5.34
502081.687000,-0.754,-0.639,0.261,-14.28,6.41,-1.46
502081.734000,-0.736,-0.717,0.122,-30.52,-12.76,-2.29
502081.781000,-0.749,-0.716,-0.024,20.78,-10.5,-0.03
502081.828000,-0.7,-0.665,-0.008,10.22,-7.05,-7.2
502081.875000,-0.72,-0.659,0.182,9.55,3.72,2.78
502081.921000,-0.779,-0.673,0.263,-13.89,-9.13,2.17
502081.968000,-0.789,-0.679,0.084,0.06,24.78,-3.91
502082.015000,-0.71,-0.696,-0.029,10.99,-17.82,-0.92
502082.062000,-0.696,-0.676,0.08,3.94,10.62,0.89
502082.109000,-0.718,-0.661,0.207,-5.43,9.98,-0.27
502082.156000,-0.796,-0.668,0.288,-23.07,-14.47,2.53
502082.203000,-0.74,-0.73,0.228,-6.04,21.61,-2.72
502082.250000,-0.717,-0.708,-0.021,11.29,-8.61,-4.94
502082.296000,-0.705,-0.672,0.137,7.78,3.23,6.9
502082.343000,-0.735,-0.697,0.233,8.51,-5.77,6.96
502082.390000,-0.713,-0.688,0.043,-25.18,-18.07,-4.79
502082.437000,-0.762,-0.657,0.019,14.44,-3.69,0.76
502082.484000,-0.705,-0.692,0.058,6.93,-5.04,-0.15
502082.531000,-0.73,-0.702,0.196,31.77,-2.99,12.24
502082.578000,-0.739,-0.629,0.195,7.23,-4.7,4.06
502082.625000,-0.604,-0.676,-0.282,-41.57,10.8,-6.71
502082.671000,-0.692,-0.706,0.002,5.62,-20.29,6.2
502082.718000,-0.728,-0.699,0.093,4.09,-6.26,-2.14
502082.765000,-0.721,-0.685,0.191,0.98,4.94,3.72
502082.812000,-0.785,-0.664,0.216,-23.68,-13.82,-7.2
502082.859000,-0.724,-0.722,0.136,4.15,-1.01,3.48
502082.921000,-0.715,-0.679,0.043,6.99,-2.87,-8.48
502082.968000,-0.742,-0.699,0.192,5.77,5.46,2.99
502083.015000,-0.75,-0.67,0.197,-11.87,-14.89,-1.22
502083.062000,-0.755,-0.61,0.043,3.63,41.51,5.95
502083.109000,-0.713,-0.689,0.057,7.93,-11.66,-4.73
502083.156000,-0.71,-0.691,0.163,7.08,18.65,2.53
502083.203000,-0.763,-0.669,0.226,-7.14,-1.07,-0.15
502083.265000,-0.801,-0.669,0.057,-6.59,33.51,-0.76
502083.312000,-0.703,-0.748,0.02,9.8,-15.29,-4.73
502083.359000,-0.714,-0.688,0.113,-0.21,17.91,-6.01
502083.406000,-0.748,-0.67,0.2,9.43,-8.03,3.23
502083.453000,-0.574,-0.7,-0.42,-8.91,20.08,5.13
502083.500000,-0.73,-0.717,0.097,6.96,-24.2,0.4
502083.546000,-0.688,-0.702,0.063,0.82,3.3,-0.76
502083.593000,-0.74,-0.69,0.21,4.06,5.95,-1.28
502083.640000,-0.777,-0.669,0.21,-11.69,-15.41,0.46
502083.687000,-0.718,-0.684,0.195,-3.42,14.68,3.11
502083.734000,-0.726,-0.689,0.046,6.16,-9.13,-5.74
502083.781000,-0.71,-0.708,0.154,7.08,11.51,-0.64
502083.828000,-0.753,-0.673,0.189,-6.9,-5.07,0.21
502083.875000,-0.748,-0.631,0.135,-0.55,22.55,5.43
502083.921000,-0.712,-0.736,0.038,11.05,-15.63,-3.66
502083.968000,-0.707,-0.692,0.153,6.71,15.5,0.18
502084.015000,-0.752,-0.694,0.203,-2.47,-7.08,1.59
502084.062000,-0.653,-0.665,-0.105,-8.61,-10.62,1.83
502084.109000,-0.714,-0.763,0.144,-5.01,-3.45,1.28
502084.156000,-0.695,-0.695,0.075,1.4,4.21,-5.1
502084.203000,-0.744,-0.676,0.185,0.24,-2.96,0.79
502084.250000,-0.771,-0.7,0.18,-15.2,-20.51,-0.4
502084.296000,-0.718,-0.635,0.201,-4.58,-3.08,1.98
502084.343000,-0.698,-0.692,0.061,0.76,6.47,-4.39
502084.390000,-0.749,-0.675,0.194,6.35,-2.44,2.14
502084.437000,-0.78,-0.695,0.188,-12.02,-17.27,0.03
502084.484000,-0.72,-0.652,0.266,-11.75,13.79,4.33
502084.531000,-0.707,-0.709,0.052,6.71,-2.96,-5.77
502084.578000,-0.711,-0.703,0.17,4.0,14.5,-1.59
502084.625000,-0.77,-0.689,0.207,-13.58,-13.0,-2.66
502084.671000,-0.714,-0.673,-0.111,12.79,37.87,12.33
502084.718000,-0.719,-0.726,0.047,2.53,-5.83,-7.66
502084.765000,-0.702,-0.699,0.163,9.0,10.28,-2.99
502084.812000,-0.756,-0.683,0.219,-10.83,-7.81,-1.86
502084.859000,-0.687,-0.643,-0.27,6.65,35.98,9.55
502084.906000,-0.72,-0.734,0.076,4.39,-25.18,-2.99
502084.953000,-0.69,-0.703,0.094,0.73,14.28,-1.59
502085.000000,-0.739,-0.686,0.196,1.43,1.98,-0.31
502085.046000,-0.618,-0.713,-0.201,-5.83,-8.06,0.46
502085.093000,-0.722,-0.752,0.136,-3.94,-10.07,2.26
502085.140000,-0.713,-0.673,0.085,0.18,-5.62,-2.38
502085.187000,-0.72,-0.698,0.191,-1.07,2.5,-0.34
502085.234000,-0.713,-0.657,0.168,-14.37,-14.59,-0.85
502085.281000,-0.693,-0.718,0.023,1.56,-2.9,6.32
502085.328000,-0.734,-0.715,0.087,0.58,-5.46,-2.72
502085.375000,-0.715,-0.683,0.129,6.81,6.44,3.51
502085.421000,-0.715,-0.717,0.199,3.36,2.62,5.19
502085.468000,-0.767,-0.684,0.169,-19.29,-15.35,-2.53
502085.515000,-0.71,-0.665,0.085,-0.06,-1.34,3.05
502085.562000,-0.713,-0.688,0.068,0.7,-0.76,-4.55
502085.609000,-0.701,-0.709,0.16,6.1,15.56,5.52
502085.656000,-0.761,-0.694,0.195,-6.1,-10.47,-0.79
502085.703000,-0.693,-0.744,-0.086,17.18,28.17,8.33
502085.750000,-0.714,-0.696,0.076,9.37,-9.52,-4.82
502085.796000,-0.71,-0.708,0.101,5.07,13.18,2.5
502085.843000,-0.751,-0.678,0.189,-6.35,-7.72,-3.02
502085.890000,-0.709,-0.718,-0.088,5.19,14.22,3.08
502085.937000,-0.73,-0.724,0.102,-0.24,-8.97,-4.46
502085.984000,-0.685,-0.692,0.095,10.01,10.47,-0.52
502086.031000,-0.746,-0.68,0.211,-11.81,-2.66,-1.59
502086.078000,-0.719,-0.633,-0.009,-18.56,-18.28,3.33
502086.125000,-0.734,-0.76,0.091,-10.56,-14.86,-11.99
502086.171000,-0.692,-0.694,0.049,6.9,8.94,-7.08
502086.218000,-0.723,-0.709,0.161,0.49,7.29,0.37
502086.265000,-0.772,-0.704,0.177,-9.64,-19.62,2.5
502086.312000,-0.684,-0.732,0.177,-6.29,-3.51,-0.67
502086.359000,-0.699,-0.7,0.091,17.03,-3.54,-3.33
502086.406000,-0.701,-0.69,0.151,35.95,10.5,9.55
502086.453000,-0.74,-0.66,0.193,-5.4,-1.83,-2.2
502086.500000,-0.768,-0.697,0.223,-16.82,-12.54,1.28
502086.546000,-0.659,-0.747,0.121,9.86,-16.94,5.34
502086.593000,-0.722,-0.762,0.111,-0.4,-5.1,-5.07
502086.640000,-0.718,-0.683,0.14,15.02,14.59,-4.79
502086.687000,-0.735,-0.691,0.205,2.78,0.4,-0.61
502086.734000,-0.737,-0.686,0.136,-14.62,-16.39,-1.77
502086.781000,-0.701,-0.681,0.113,-1.8,-7.93,2.78
502086.828000,-0.735,-0.704,0.144,-3.36,-0.85,-4.15
502086.890000,-0.693,-0.731,0.101,10.68,4.67,0.89
502086.937000,-0.743,-0.707,0.2,1.13,0.95,-1.01
502086.984000,-0.666,-0.709,-0.01,-4.67,4.36,3.66
502087.031000,-0.722,-0.682,0.087,-1.34,-1.4,1.4
502087.078000,-0.723,-0.686,0.099,-1.4,-1.07,1.56
502087.125000,-0.712,-0.729,0.152,0.43,-0.46,0.09
502087.171000,-0.7,-0.703,0.119,16.11,5.86,0.76
502087.218000,-0.734,-0.699,0.15,8.85,7.69,-0.09
502087.265000,-0.744,-0.68,0.182,-6.65,-6.07,-2.62
502087.312000,-0.684,-0.677,0.022,-14.83,-22.74,0.21
502087.359000,-0.714,-0.702,0.193,-13.58,3.81,1.89
502087.406000,-0.731,-0.697,0.131,-5.98,-5.77,5.28
502087.453000,-0.73,-0.718,0.175,-3.6,-1.62,0.15
502087.500000,-0.703,-0.703,0.122,5.04,-0.49,2.66
502087.562000,-0.731,-0.689,0.101,4.0,3.02,-0.92
502087.609000,-0.72,-0.683,0.082,-0.18,0.0,0.34
502087.656000,-0.714,-0.692,0.102,1.86,-0.21,-0.76
502087.703000,-0.72,-0.699,0.138,6.29,1.07,-0.37
502087.750000,-0.716,-0.718,0.136,29.27,11.93,3.45
502087.796000,-0.709,-0.664,0.114,18.86,21.82,-4.21
502087.843000,-0.738,-0.684,0.157,2.9,21.94,-5.31
502087.890000,-0.741,-0.678,0.152,1.31,-2.56,0.82
502087.937000,-0.727,-0.678,0.192,-11.47,-14.53,-1.1
502087.984000,-0.757,-0.675,0.226,-27.34,-37.23,-0.64
502088.031000,-0.711,-0.757,0.225,-7.75,3.57,2.08
502088.078000,-0.721,-0.685,0.063,0.46,-3.02,-4.49
502088.125000,-0.715,-0.7,0.123,8.27,-1.04,1.95
502088.171000,-0.713,-0.699,0.149,-0.67,0.27,-2.35
502088.218000,-0.711,-0.714,0.13,5.25,3.63,-1.01
502088.265000,-0.713,-0.687,0.11,7.57,5.25,-0.52
502088.312000,-0.701,-0.703,0.108,7.39,12.88,0.49
502088.359000,-0.714,-0.678,0.134,5.71,8.73,-1.86
502088.406000,-0.721,-0.678,0.191,6.32,3.6,2.96
502088.453000,-0.75,-0.665,0.283,-13.46,-6.41,1.19
502088.500000,-0.789,-0.687,0.284,-29.42,-42.12,-4.18
502088.546000,-0.689,-0.741,0.148,-7.29,2.69,-1.37
502088.609000,-0.723,-0.658,0.073,-4.15,-7.45,-0.37
502088.656000,-0.721,-0.717,0.133,-2.2,-7.97,4.94
502088.703000,-0.714,-0.711,0.186,-2.84,-1.28,0.82
502088.750000,-0.715,-0.693,0.162,-3.02,0.55,0.18
502088.796000,-0.713,-0.677,0.091,7.05,3.08,-0.52
502088.843000,-0.723,-0.698,0.106,2.53,2.47,1.19
502088.890000,-0.711,-0.7,0.097,0.58,0.09,-0.64
502088.937000,-0.72,-0.682,0.142,0.37,0.15,1.5
502088.984000,-0.713,-0.689,0.139,0.85,-0.06,1.43
502089.031000,-0.723,-0.692,0.151,1.31,1.28,2.47
502089.078000,-0.725,-0.673,0.135,1.19,-1.13,1.62
502089.125000,-0.741,-0.7,0.156,-1.07,-0.7,2.56
502089.171000,-0.729,-0.724,0.15,0.18,-2.23,-0.52
502089.218000,-0.726,-0.703,0.135,1.8,-3.27,-2.44
502089.281000,-0.722,-0.707,0.158,0.09,-2.9,-4.03
502089.328000,-0.717,-0.713,0.154,1.68,-4.73,-6.38
502089.375000,-0.7,-0.699,0.138,0.4,-5.25,-6.04
502089.421000,-0.727,-0.701,0.139,0.15,-6.2,-6.35
502089.468000,-0.709,-0.684,0.151,1.74,-8.15,-8.0
502089.515000,-0.699,-0.709,0.145,3.39,-8.18,-5.83
502089.562000,-0.675,-0.714,0.172,1.04,-6.93,-7.26
502089.609000,-0.669,-0.721,0.18,6.2,-7.6,-4.52
502089.656000,-0.689,-0.744,0.198,-0.46,-2.11,-7.6
502089.703000,-0.666,-0.706,0.161,6.23,-4.97,-7.08
502089.750000,-0.67,-0.7,0.184,2.01,-2.11,-8.88
502089.796000,-0.662,-0.692,0.182,3.27,-1.5,-2.35
502089.843000,-0.671,-0.702,0.184,-0.7,-2.35,-2.87
502089.890000,-0.664,-0.695,0.193,-0.21,-1.77,0.43
502089.937000,-0.673,-0.726,0.198,1.46,-2.53,0.43
502089.984000,-0.692,-0.755,0.207,-0.31,-1.28,1.16
502090.031000,-0.852,-0.997,0.27,-8.61,7.2,-21.82
502090.078000,-0.864,-1.242,-0.022,6.9,12.82,-75.75
502090.140000,-0.599,-0.777,-0.11,33.91,40.04,-154.36
502090.187000,0.172,0.11,-0.597,73.58,20.11,-111.97
502090.234000,-0.524,-0.291,0.18,60.98,118.93,136.78
502090.281000,-1.295,-1.605,0.528,73.34,93.51,89.85
502090.328000,-1.136,-1.132,0.631,73.95,33.17,-55.97
502090.375000,-0.481,-0.909,0.306,144.72,-20.45,-11.54
502090.421000,-0.39,-0.615,0.447,92.1,38.15,-65.25
502090.468000,-0.613,-0.559,0.769,110.63,35.25,-32.44
502090.515000,-0.551,-0.381,0.68,68.91,-0.82,-11.72
502090.578000,-0.568,-0.502,0.714,30.79,-12.33,-4.58
502090.625000,-0.49,-0.566,0.607,16.48,-19.01,13.46
502090.671000,-0.517,-0.635,0.65,27.8,-18.07,5.28
502090.718000,-0.485,-0.613,0.562,36.16,-23.47,13.58
502090.765000,-0.487,-0.636,0.591,25.42,-14.83,7.93
502090.828000,-0.502,-0.618,0.637,18.71,-7.2,9.7
502090.875000,-0.485,-0.591,0.646,12.76,-5.25,3.14
502090.921000,-0.503,-0.558,0.677,6.87,-1.5,1.77
502090.968000,-0.524,-0.547,0.709,17.37,-5.62,4.27
502091.015000,-0.507,-0.554,0.703,13.21,-6.07,4.7
502091.078000,-0.544,-0.616,0.789,-5.13,-6.81,-7.17
502091.125000,-0.514,-0.666,0.761,-9.43,-16.6,-8.61
502091.171000,-0.518,-0.617,0.779,-8.45,-24.45,-21.15
502091.218000,-0.45,-0.569,0.703,0.49,-30.67,-14.47
502091.265000,-0.419,-0.482,0.645,-7.29,-23.47,-16.94
502091.312000,-0.415,-0.487,0.642,-1.68,-20.94,-2.75
502091.359000,-0.444,-0.522,0.708,-0.43,-20.02,1.01
502091.406000,-0.446,-0.601,0.806,0.03,-21.27,1.04
502091.453000,-0.402,-0.827,0.785,-8.91,-16.94,-7.69
502091.500000,-0.579,-1.758,1.365,-134.95,28.11,-95.8
502091.562000,-0.442,-1.642,1.132,-61.19,-75.17,-154.61
502091.609000,-0.368,-0.905,0.703,-101.54,-62.9,-239.14
502091.656000,-0.368,-0.407,0.554,-91.65,-53.32,-250.28
502091.703000,-0.162,0.047,0.305,-17.03,-56.7,-198.0
502091.750000,0.126,0.288,0.056,-58.05,-43.67,-144.17
502091.796000,0.412,-0.134,0.22,-26.22,-35.86,-11.72
502091.843000,0.449,-0.766,0.207,-32.38,7.17,19.32
502091.890000,0.309,-1.036,0.593,32.69,-10.53,12.82
502091.937000,0.466,-0.809,0.263,71.84,-27.28,15.05
502091.984000,0.427,-0.753,0.299,-2.53,-8.15,-9.43
502092.031000,0.39,-0.778,0.278,39.43,-9.67,20.63
502092.078000,0.381,-0.807,0.341,-65.49,25.06,-29.94
502092.125000,0.355,-0.758,0.412,28.66,-0.24,14.44
502092.171000,0.467,-0.749,0.258,25.21,7.6,26.83
502092.218000,0.432,-0.8,0.354,26.09,17.76,29.27
502092.265000,0.413,-0.931,0.538,-3.05,36.62,8.33
502092.312000,0.371,-1.035,0.632,18.4,24.45,13.21
502092.359000,0.384,-0.89,0.633,45.78,15.41,3.57
502092.406000,0.37,-0.676,0.522,31.68,6.5,2.2
502092.453000,0.34,-0.671,0.573,-8.88,16.48,-3.78
502092.500000,0.314,-0.747,0.603,-2.17,6.62,13.86
502092.546000,0.323,-0.787,0.565,-0.82,1.71,12.51
502092.593000,0.351,-0.804,0.565,-27.53,-3.11,0.49
502092.640000,0.37,-0.868,0.528,-7.42,-5.37,14.19
502092.687000,0.327,-0.91,0.517,-14.28,-1.13,3.57
502092.734000,0.29,-0.887,0.524,5.71,-4.49,4.18
502092.781000,0.3,-0.836,0.483,-5.92,-0.98,-13.82
502092.828000,0.33,-0.791,0.48,-2.56,-4.82,-11.9
502092.890000,0.355,-0.793,0.428,4.61,2.5,-4.94
502092.937000,0.34,-0.821,0.485,-16.42,6.07,-12.21
502092.984000,0.399,-0.88,0.471,-3.17,8.21,-2.44
502093.031000,0.409,-0.888,0.463,-8.48,6.84,-10.41
502093.078000,0.397,-0.895,0.508,-14.8,8.06,-14.71
502093.125000,0.366,-0.855,0.504,-1.65,6.32,-16.05
502093.171000,0.325,-0.818,0.535,-4.3,-0.61,-20.02
502093.218000,0.359,-0.73,0.504,-1.25,-4.85,-18.19
502093.265000,0.369,-0.731,0.477,-8.21,-4.7,-13.79
502093.312000,0.371,-0.734,0.496,-1.77,-8.21,-9.03
502093.359000,0.402,-0.738,0.431,0.15,-9.8,-2.08
502093.406000,0.389,-0.773,0.461,-1.56,-10.25,-0.55
502093.453000,0.423,-0.769,0.406,-0.64,-10.59,3.08
502093.500000,0.425,-0.829,0.422,-2.9,-5.74,1.4
502093.546000,0.428,-0.81,0.413,1.4,-4.55,1.86
502093.593000,0.429,-0.799,0.395,-0.37,-1.62,-0.37
502093.640000,0.431,-0.803,0.433,4.39,0.03,1.77
502093.687000,0.419,-0.806,0.42,-0.34,-0.27,3.48
502093.734000,0.416,-0.801,0.441,0.98,1.59,0.76
502093.781000,0.418,-0.795,0.424,1.92,1.8,3.85
502093.828000,0.408,-0.809,0.441,2.26,1.46,3.45
502093.875000,0.421,-0.809,0.428,4.91,-0.31,4.36
502093.921000,0.416,-0.814,0.451,-2.38,4.97,0.37
502093.968000,0.416,-0.798,0.458,3.88,3.54,2.17
502094.015000,0.416,-0.799,0.45,-0.79,4.67,1.13
502094.062000,0.397,-0.818,0.485,-0.27,3.63,0.18
502094.109000,0.407,-0.803,0.471,2.47,1.19,0.27
502094.156000,0.405,-0.794,0.459,1.77,3.05,0.55
502094.203000,0.405,-0.807,0.469,2.9,1.98,-0.06
502094.250000,0.406,-0.786,0.474,1.13,3.33,-0.58
502094.296000,0.403,-0.781,0.474,1.46,1.95,0.82
502094.343000,0.396,-0.794,0.473,2.44,0.89,3.05
502094.390000,0.401,-0.803,0.485,-0.24,1.01,3.66
502094.437000,0.399,-0.799,0.482,2.56,1.83,2.44
502094.484000,0.381,-0.806,0.488,6.2,-1.46,3.54
502094.531000,0.383,-0.792,0.485,0.18,-1.56,0.43
502094.578000,0.397,-0.787,0.465,4.64,-1.95,4.0
502094.625000,0.395,-0.797,0.475,0.76,-0.89,3.05
502094.671000,0.396,-0.805,0.458,2.32,-0.4,4.18
502094.718000,0.379,-0.814,0.486,4.27,0.4,4.12
502094.765000,0.391,-0.808,0.469,1.43,-1.8,3.69
502094.812000,0.386,-0.792,0.476,1.83,0.89,3.3
502094.859000,0.378,-0.8,0.483,5.92,0.15,6.65
502094.906000,0.375,-0.8,0.487,-1.46,0.67,1.71
502094.953000,0.374,-0.792,0.489,5.22,1.1,4.88
502095.000000,0.366,-0.812,0.489,-1.28,1.53,1.68
502095.046000,0.37,-0.797,0.498,-0.31,-0.24,2.23
502095.093000,0.38,-0.801,0.481,-0.12,1.31,3.81
502095.140000,0.367,-0.806,0.488,0.12,1.01,3.2
502095.187000,0.373,-0.811,0.493,-0.27,1.46,2.38
502095.234000,0.358,-0.812,0.496,1.95,1.25,2.59
502095.281000,0.36,-0.798,0.494,0.89,0.03,2.04
502095.328000,0.366,-0.794,0.491,0.79,-0.64,3.23
502095.375000,0.358,-0.809,0.481,2.69,-0.85,3.97
502095.421000,0.356,-0.803,0.496,-0.15,1.5,2.78
502095.468000,0.346,-0.811,0.498,4.7,1.53,3.81
502095.515000,0.338,-0.814,0.499,1.07,0.85,2.53
502095.562000,0.354,-0.797,0.484,0.31,-0.92,3.02
502095.609000,0.347,-0.808,0.488,0.79,1.34,3.69
502095.656000,0.33,-0.806,0.504,1.28,1.07,3.85
502095.703000,0.326,-0.778,0.475,-0.7,1.83,1.92
502095.750000,0.327,-0.801,0.481,-7.2,5.62,5.8
502095.796000,0.299,-0.769,0.495,-4.58,9.89,11.08
502095.843000,0.268,-0.777,0.53,-1.53,12.02,12.05
502095.890000,0.259,-0.811,0.508,11.69,9.58,13.49
502095.937000,0.245,-0.833,0.477,17.15,11.17,13.95
502095.984000,0.22,-0.828,0.5,23.5,12.76,16.66
502096.031000,0.18,-0.762,0.56,32.14,13.89,21.76
502096.078000,0.176,-0.857,0.561,22.22,9.49,23.93
502096.125000,0.14,-0.817,0.596,46.57,9.7,22.25
502096.171000,0.239,-0.714,0.503,21.12,-3.17,16.3
502096.218000,0.313,-0.828,0.526,18.71,14.07,33.91
502096.265000,0.242,-0.842,0.692,28.69,27.31,32.96
502096.328000,0.207,-0.85,0.732,4.06,15.81,11.96
502096.375000,0.143,-0.814,0.757,25.3,7.11,18.49
502096.421000,0.099,-0.789,0.667,0.82,-2.23,7.14
502096.484000,0.096,-0.757,0.623,7.54,-7.72,10.93
502096.531000,0.135,-0.725,0.557,-4.12,-5.46,3.88
502096.578000,0.138,-0.667,0.646,-0.06,-2.14,5.4
502096.625000,0.228,-0.634,0.696,5.58,-1.71,9.34
502096.671000,0.179,-0.58,0.891,20.81,16.42,12.73
502096.718000,0.041,-0.569,0.954,33.57,14.83,26.52
502096.765000,-0.062,-0.653,0.892,6.29,-13.0,33.48
502096.812000,0.029,-0.715,0.741,5.4,-23.62,33.02
502096.859000,0.071,-0.796,0.662,0.09,-22.31,33.02
502096.906000,0.007,-0.912,0.672,6.59,-5.58,18.16
502096.953000,-0.008,-0.769,0.668,5.1,1.01,-6.99
502097.000000,0.045,-0.614,0.743,11.26,8.21,-0.92
502097.046000,0.063,-0.571,0.845,8.58,13.52,-0.37
502097.093000,0.015,-0.568,0.931,17.67,2.41,10.47
502097.140000,-0.021,-0.604,0.86,10.47,-11.29,14.59
502097.187000,-0.02,-0.667,0.786,1.43,-17.79,22.4
502097.234000,-0.048,-0.76,0.683,-8.0,-16.48,26.83
502097.281000,-0.048,-0.839,0.592,-14.13,-15.17,21.0
502097.328000,-0.026,-0.886,0.587,-10.99,0.7,4.88
502097.375000,0.041,-0.664,0.64,-5.49,11.2,-17.33
502097.421000,0.083,-0.59,0.728,-1.8,16.24,-15.53
502097.468000,0.073,-0.535,0.86,17.15,21.61,-3.75
502097.515000,0.012,-0.587,0.918,5.07,14.92,11.32
502097.562000,-0.055,-0.671,0.936,5.16,-5.07,22.58
502097.609000,-0.04,-0.718,0.821,-14.47,-26.34,16.33
502097.656000,-0.009,-0.747,0.724,-11.81,-26.98,12.57
502097.703000,-0.06,-0.73,0.676,-11.6,-24.08,7.39
502097.750000,-0.029,-0.77,0.582,-21.39,-21.85,2.81
502097.796000,-0.015,-0.751,0.566,-1.95,-5.46,5.19
502097.843000,-0.01,-0.732,0.584,-2.41,4.36,1.25
502097.890000,0.013,-0.678,0.74,10.9,15.02,3.72
502097.937000,-0.023,-0.613,0.847,16.36,13.89,7.87
502097.984000,-0.021,-0.586,0.879,4.61,4.64,13.4
502098.031000,-0.025,-0.702,0.838,-4.79,-12.33,23.62
502098.078000,-0.066,-0.709,0.771,-0.61,-14.92,23.35
502098.125000,-0.082,-0.82,0.674,-10.68,-17.76,13.09
502098.171000,-0.076,-0.764,0.639,-2.81,-9.74,8.0
502098.218000,-0.018,-0.717,0.655,-15.35,-4.0,1.89
502098.265000,0.005,-0.631,0.76,-2.78,4.67,4.0
502098.312000,0.027,-0.67,0.749,-18.31,7.02,0.92
502098.359000,-0.1,-0.762,0.808,-24.63,-2.17,6.5
502098.406000,0.019,-0.944,0.49,-22.43,-8.55,-8.97
502098.453000,-0.104,-0.802,0.623,-35.25,5.71,-20.39
502098.500000,-0.051,-0.729,0.615,0.06,-1.37,2.41
502098.546000,-0.063,-0.705,0.661,-19.44,5.46,-9.58
502098.593000,-0.046,-0.741,0.679,-6.59,-1.16,4.03
502098.640000,-0.018,-0.766,0.641,8.18,-0.43,12.36
502098.687000,-0.033,-0.85,0.609,2.2,4.94,6.99
502098.734000,-0.056,-0.824,0.579,18.68,5.89,5.55
502098.781000,-0.085,-0.804,0.638,-10.62,18.8,-5.04
502098.843000,0.003,-0.62,0.693,5.07,8.55,-3.39
502098.890000,-0.085,-0.744,0.632,-25.64,20.29,-9.34
502098.937000,-0.109,-0.768,0.725,-5.98,17.18,-1.83
502098.984000,-0.049,-0.85,0.542,-6.99,14.95,-0.55
502099.031000,-0.117,-0.82,0.678,-11.2,14.04,-5.16
502099.078000,-0.1,-0.791,0.625,8.76,5.07,6.87
502099.125000,-0.13,-0.783,0.681,-4.58,9.34,1.46
502099.171000,-0.1,-0.794,0.631,7.72,-2.53,6.16
502099.218000,-0.125,-0.785,0.609,-0.09,3.14,-2.44
502099.265000,-0.098,-0.767,0.61,5.98,-3.11,-3.08
502099.312000,-0.12,-0.767,0.642,-3.63,-2.08,-5.25
502099.359000,-0.092,-0.817,0.617,-7.81,0.06,-0.09
502099.406000,-0.099,-0.8,0.607,-7.6,2.44,-3.69
502099.453000,-0.117,-0.813,0.609,-4.82,2.23,-3.85
502099.500000,-0.094,-0.843,0.59,-9.06,-2.41,-7.75
502099.546000,-0.089,-0.79,0.595,-6.78,0.64,-8.03
502099.593000,-0.084,-0.845,0.576,-4.49,-1.68,-4.82
502099.640000,-0.069,-0.836,0.579,-1.56,1.71,-7.84
502099.687000,-0.068,-0.836,0.579,-5.01,1.43,-5.13
502099.734000,-0.076,-0.829,0.598,-1.4,0.18,-0.15
502099.781000,-0.082,-0.826,0.585,-4.24,1.53,-3.45
502099.828000,-0.072,-0.794,0.578,-2.41,-1.83,-1.19
502099.875000,-0.038,-0.767,0.553,-3.69,5.43,1.95
502099.921000,-0.098,-0.928,0.607,6.59,8.03,17.43
502099.968000,-0.183,-0.912,0.637,8.24,-3.45,8.7
502100.015000,-0.049,-0.745,0.546,11.29,-7.32,2.44
502100.062000,-0.074,-0.854,0.609,34.42,4.91,24.41
502100.109000,-0.131,-0.851,0.645,25.03,-8.3,20.02
502100.156000,-0.104,-0.735,0.637,4.55,-0.98,-3.97
502100.203000,-0.1,-0.797,0.646,10.41,5.65,8.76
502100.250000,-0.14,-0.764,0.646,-18.01,6.13,-4.58
502100.296000,-0.098,-0.732,0.612,-7.48,2.01,-3.48
502100.343000,-0.105,-0.774,0.617,-2.32,5.83,0.76
502100.390000,-0.139,-0.797,0.637,-7.66,1.34,-2.23
502100.437000,-0.093,-0.777,0.626,-10.16,-0.58,-9.31
502100.484000,-0.099,-0.8,0.579,-9.25,5.98,-1.98
502100.531000,-0.135,-0.839,0.625,-9.43,-0.27,-5.43
502100.578000,-0.067,-0.801,0.578,-9.03,4.36,-7.69
502100.625000,-0.107,-0.855,0.607,-13.98,8.39,-1.22
502100.671000,-0.144,-0.816,0.589,-10.68,-2.87,-8.55
502100.718000,-0.078,-0.809,0.554,-5.01,-0.85,-4.36
502100.765000,-0.107,-0.831,0.584,-3.94,1.8,0.64
502100.812000,-0.118,-0.842,0.573,-8.24,-1.16,-2.32
502100.859000,-0.093,-0.821,0.557,2.2,0.27,5.04
502100.906000,-0.105,-0.836,0.554,13.28,-0.43,15.72
502100.953000,-0.136,-0.849,0.598,9.19,-0.46,10.62
502101.000000,-0.125,-0.829,0.587,21.73,-2.62,14.95
502101.046000,-0.122,-0.811,0.595,2.38,1.01,4.52
502101.093000,-0.128,-0.824,0.592,14.1,-0.37,9.46
502101.140000,-0.136,-0.782,0.623,-5.95,6.04,3.72
502101.187000,-0.145,-0.8,0.597,2.9,2.01,5.46
502101.234000,-0.151,-0.784,0.617,-5.71,5.52,-1.56
502101.281000,-0.146,-0.826,0.614,-13.18,2.26,-7.35
502101.343000,-0.135,-0.83,0.583,-12.76,3.54,-11.29
502101.390000,-0.134,-0.83,0.582,-17.27,3.42,-12.02
502101.437000,-0.106,-0.826,0.542,-10.68,3.48,-9.19
502101.484000,-0.115,-0.825,0.552,1.89,2.23,2.5
502101.531000,-0.145,-0.844,0.564,0.24,3.2,6.87
502101.578000,-0.142,-0.837,0.558,4.7,2.23,10.41
502101.625000,-0.149,-0.856,0.57,21.15,-2.53,19.35
502101.671000,-0.155,-0.831,0.599,27.8,-5.4,19.47
502101.718000,-0.162,-0.782,0.606,9.58,-0.24,9.43
502101.765000,-0.161,-0.795,0.601,2.84,0.92,6.16
502101.812000,-0.164,-0.815,0.599,18.25,3.02,12.39
502101.875000,-0.189,-0.752,0.608,10.47,2.84,13.58
502101.921000,-0.189,-0.751,0.604,-1.19,3.85,6.78
502101.968000,-0.2,-0.794,0.629,6.23,7.42,11.81
502102.015000,-0.219,-0.796,0.64,-1.04,5.4,6.26
502102.062000,-0.212,-0.795,0.658,-0.37,2.99,5.4
502102.109000,-0.206,-0.793,0.683,-13.37,0.67,1.37
502102.156000,-0.219,-0.821,0.645,-11.84,-2.53,1.34
502102.203000,-0.209,-0.803,0.596,-16.54,-3.17,-5.49
502102.250000,-0.202,-0.84,0.548,-1.56,-5.04,-0.67
502102.312000,-0.2,-0.812,0.563,1.71,1.01,-0.06
502102.359000,-0.228,-0.794,0.57,7.17,-0.98,0.12
502102.406000,-0.211,-0.782,0.584,0.24,4.21,-3.17
502102.453000,-0.218,-0.791,0.603,1.95,3.69,-5.65
502102.500000,-0.163,-0.844,0.526,4.61,3.45,-7.02
502102.546000,-0.193,-0.912,0.704,8.48,-1.53,-7.84
502102.593000,-0.172,-0.914,0.773,54.57,-28.69,-2.69
502102.640000,-0.206,-0.799,0.804,78.19,-38.39,-0.85
502102.687000,-0.097,-0.625,0.711,96.56,-72.54,2.93
502102.734000,-0.018,-0.549,0.679,69.34,-48.95,-5.49
502102.781000,-0.005,-0.503,0.801,47.98,-44.5,1.25
502102.828000,0.052,-0.45,0.767,51.12,-35.1,17.33
502102.875000,0.015,-0.413,0.853,20.2,-21.09,10.93
502102.921000,-0.065,-0.357,0.963,42.85,-26.89,23.13
502102.968000,-0.039,-0.227,0.861,21.36,-21.45,20.72
502103.015000,-0.05,-0.35,0.855,-9.7,6.71,31.98
502103.062000,0.028,-0.6,0.675,-52.74,47.76,-12.45
502103.109000,-0.257,-0.679,0.967,-118.11,89.82,-56.89
502103.156000,-0.082,-0.665,0.781,-80.6,53.1,-26.12
502103.203000,-0.219,-0.702,0.798,-123.02,53.5,-62.2
502103.250000,-0.202,-0.895,0.745,-55.21,11.72,-17.98
502103.296000,-0.179,-0.813,0.607,-67.23,-2.01,-36.65
502103.343000,-0.075,-0.848,0.533,-13.46,-16.24,-4.3
502103.390000,-0.048,-0.785,0.432,6.47,-19.93,1.07
502103.437000,-0.108,-0.707,0.575,0.27,-11.99,5.89
502103.484000,-0.062,-0.897,0.538,-26.67,-7.35,-7.66
502103.531000,-0.062,-0.931,0.527,-12.82,3.54,-11.75
502103.578000,-0.071,-0.874,0.486,-7.45,14.25,-21.55
502103.625000,-0.049,-0.901,0.516,-5.46,13.89,-8.64
502103.671000,-0.049,-0.858,0.495,-2.29,12.91,-13.67
502103.718000,-0.031,-0.875,0.516,-3.39,11.81,-7.02
502103.765000,-0.011,-0.867,0.528,7.14,16.85,-0.7
502103.812000,-0.036,-0.89,0.56,10.07,21.88,5.55
502103.859000,-0.078,-0.811,0.553,57.5,28.99,44.04
502103.906000,-0.115,-0.798,0.651,39.52,2.53,35.37
502103.968000,-0.115,-0.735,0.566,49.32,9.89,39.46
502104.015000,-0.167,-0.692,0.68,-7.23,12.36,4.91
502104.062000,-0.167,-0.719,0.651,-21.85,28.6,6.53
502104.109000,-0.162,-0.764,0.635,-59.66,25.21,-17.0
502104.156000,-0.238,-0.896,0.641,-26.4,13.67,12.39
502104.203000,-0.201,-0.737,0.557,-7.57,-6.5,-0.4
502104.250000,-0.221,-0.823,0.636,-15.2,0.09,10.28
502104.312000,-0.196,-0.813,0.56,13.06,-5.86,9.43
502104.375000,-0.2,-0.823,0.591,1.89,-4.58,5.74
502104.421000,-0.234,-0.804,0.591,13.34,0.67,15.14
502104.468000,-0.218,-0.798,0.614,0.73,-9.92,7.2
502104.515000,-0.258,-0.8,0.58,-3.66,-4.03,10.86
502104.562000,-0.218,-0.804,0.597,3.42,-8.51,0.64
502104.609000,-0.218,-0.784,0.584,0.98,1.13,9.37
502104.656000,-0.255,-0.788,0.571,1.59,-7.29,3.2
502104.703000,-0.248,-0.805,0.582,3.42,-3.75,9.8
502104.750000,-0.26,-0.836,0.623,9.55,-4.21,4.55
502104.796000,-0.223,-0.838,0.641,16.08,-13.79,5.49
502104.859000,-0.224,-0.818,0.616,42.3,-14.07,9.13
502104.906000,-0.218,-0.711,0.62,37.57,-15.47,22.19
502104.953000,-0.235,-0.651,0.687,28.2,-12.02,6.1
502105.000000,-0.194,-0.689,0.703,30.37,-8.82,16.27
502105.046000,-0.24,-0.65,0.698,28.2,0.95,8.27
502105.093000,-0.241,-0.615,0.753,24.08,-1.37,7.66
502105.140000,-0.227,-0.621,0.759,37.63,-3.11,14.16
502105.187000,-0.233,-0.6,0.786,19.17,1.19,9.67
502105.234000,-0.268,-0.603,0.789,27.53,-0.21,15.14
502105.281000,-0.266,-0.586,0.796,21.61,1.65,10.71
502105.343000,-0.277,-0.576,0.847,51.06,4.33,20.29
502105.390000,-0.251,-0.498,0.775,22.89,-0.49,12.54
502105.437000,-0.306,-0.507,0.916,16.75,9.83,3.72
502105.484000,-0.28,-0.458,0.827,18.43,-1.98,9.43
502105.531000,-0.298,-0.465,0.888,2.26,1.89,1.56
502105.578000,-0.287,-0.466,0.831,9.98,-5.01,2.81
502105.625000,-0.263,-0.47,0.831,-12.39,1.25,-3.97
502105.671000,-0.29,-0.503,0.834,-27.16,10.16,-25.09
502105.718000,-0.282,-0.493,0.827,-24.11,2.9,-14.92
502105.765000,-0.293,-0.55,0.84,-28.72,2.59,-16.08
502105.812000,-0.265,-0.568,0.798,-24.29,-0.06,-12.36
502105.859000,-0.272,-0.588,0.823,-13.79,-4.97,-7.11
502105.906000,-0.24,-0.587,0.765,-9.4,-4.64,-2.75
502105.953000,-0.287,-0.61,0.842,5.98,-4.7,4.21
502106.000000,-0.233,-0.564,0.755,4.24,-10.16,3.39
502106.046000,-0.244,-0.595,0.813,-4.67,-4.82,-0.79
502106.093000,-0.218,-0.545,0.768,-19.53,-3.3,-5.83
502106.140000,-0.235,-0.615,0.81,-5.83,3.88,1.83
502106.187000,-0.249,-0.603,0.793,-10.13,0.0,-1.37
502106.234000,-0.247,-0.607,0.799,0.03,0.64,3.39
502106.281000,-0.234,-0.6,0.783,3.3,-2.59,3.33
502106.328000,-0.256,-0.62,0.809,-6.2,-0.89,-2.69
502106.375000,-0.234,-0.627,0.779,5.98,-2.56,-1.8
502106.421000,-0.222,-0.613,0.761,-7.23,0.52,-7.42
502106.468000,-0.22,-0.625,0.768,-6.65,-0.58,-4.7
502106.515000,-0.229,-0.618,0.762,-18.8,2.59,-8.94
502106.562000,-0.227,-0.642,0.761,-7.66,0.92,0.98
502106.609000,-0.245,-0.647,0.764,7.87,-0.21,12.88
502106.656000,-0.256,-0.671,0.785,9.25,-3.36,14.25
502106.703000,-0.256,-0.617,0.787,-1.86,-9.16,3.63
502106.750000,-0.209,-0.601,0.749,-0.79,-11.57,8.03
502106.796000,-0.219,-0.591,0.748,-25.21,0.34,-6.07
502106.843000,-0.229,-0.606,0.756,-13.0,2.62,0.76
502106.890000,-0.232,-0.62,0.741,-4.36,0.12,6.29
502106.937000,-0.236,-0.661,0.745,-8.21,2.78,8.21
502106.984000,-0.242,-0.648,0.749,-2.72,4.46,6.81
502107.031000,-0.269,-0.641,0.763,-7.26,0.76,7.57
502107.078000,-0.23,-0.646,0.731,-7.14,1.77,8.27
502107.125000,-0.26,-0.654,0.753,-7.35,-0.95,8.21
502107.171000,-0.249,-0.69,0.731,-3.33,-1.46,11.84
502107.218000,-0.269,-0.64,0.729,-5.8,3.14,5.77
502107.265000,-0.294,-0.646,0.73,-4.27,-1.5,10.35
502107.312000,-0.281,-0.642,0.669,-2.11,-2.14,10.56
502107.359000,-0.281,-0.658,0.688,-3.08,1.98,11.72
502107.406000,-0.276,-0.671,0.693,6.29,5.16,13.55
502107.453000,-0.282,-0.648,0.724,0.55,8.18,10.65
502107.500000,-0.264,-0.674,0.776,-0.49,5.62,17.64
502107.546000,-0.329,-0.648,0.753,3.91,6.23,16.08
502107.593000,-0.326,-0.69,0.757,-3.63,2.08,8.76
502107.640000,-0.339,-0.68,0.713,-0.09,5.62,3.69
502107.687000,-0.319,-0.673,0.718,-1.95,4.49,2.04
502107.734000,-0.347,-0.65,0.736,0.95,5.49,1.62
502107.781000,-0.361,-0.639,0.711,-2.35,2.75,2.59
502107.828000,-0.365,-0.635,0.68,-3.94,1.74,-1.56
502107.875000,-0.324,-0.634,0.687,-1.01,5.1,1.25
502107.921000,-0.376,-0.613,0.727,3.45,10.65,-0.73
502107.968000,-0.399,-0.587,0.691,7.9,4.27,4.3
502108.015000,-0.406,-0.599,0.623,-2.26,2.87,6.32
502108.062000,-0.414,-0.611,0.607,13.67,7.08,16.85
502108.109000,-0.38,-0.658,0.635,13.92,13.21,18.25
502108.156000,-0.415,-0.678,0.732,6.74,27.83,1.8
502108.203000,-0.427,-0.661,0.747,13.7,21.36,0.61
502108.250000,-0.438,-0.604,0.716,8.97,18.89,-7.6
502108.296000,-0.461,-0.578,0.733,8.3,21.39,-6.35
502108.343000,-0.477,-0.561,0.761,6.41,20.63,-10.19
502108.390000,-0.478,-0.54,0.802,0.89,17.82,-8.82
502108.437000,-0.465,-0.493,0.799,-1.77,9.86,-4.58
502108.484000,-0.428,-0.515,0.762,-9.19,5.25,0.79
502108.531000,-0.391,-0.644,0.736,-32.26,1.5,-2.38
502108.578000,-0.368,-0.747,0.721,-33.72,6.01,-11.44
502108.625000,-0.363,-0.85,0.707,-36.84,6.07,-22.22
502108.671000,-0.375,-0.844,0.682,-35.95,6.04,-46.75
502108.718000,-0.411,-0.823,0.692,-19.01,-4.79,-42.27
502108.781000,-0.352,-0.779,0.617,-16.48,-12.39,-48.77
502108.828000,-0.273,-0.844,0.647,-16.14,-13.46,-44.95
502108.890000,-0.23,-0.868,0.635,-16.14,-16.48,-48.34
502108.937000,-0.196,-0.876,0.66,-28.29,-23.07,-58.23
502108.984000,-0.224,-0.85,0.651,-29.33,-26.46,-61.19
502109.031000,-0.255,-0.862,0.646,-1.1,-35.28,-47.27
502109.078000,-0.221,-0.719,0.483,-5.04,-49.53,-57.86
502109.125000,-0.196,-0.621,0.433,2.66,-36.56,-38.15
502109.171000,-0.098,-0.624,0.358,4.24,-31.34,-10.8
502109.218000,-0.002,-0.677,0.338,-22.92,-16.21,-12.94
502109.265000,0.107,-0.755,0.425,-3.02,-8.48,15.32
502109.312000,0.103,-0.845,0.506,7.35,0.15,18.31
502109.359000,0.065,-0.829,0.548,5.62,3.27,18.98
502109.406000,0.011,-0.789,0.618,9.13,-2.35,16.69
502109.453000,-0.093,-0.774,0.656,-1.28,20.75,11.47
502109.500000,-0.183,-0.85,0.671,7.14,24.02,11.54
502109.546000,-0.129,-0.826,0.638,14.71,10.47,9.58
502109.593000,-0.107,-0.853,0.553,3.17,19.07,17.46
502109.640000,-0.121,-0.928,0.615,-6.9,29.18,8.33
502109.687000,-0.014,-0.91,0.521,-11.96,7.9,1.07
502109.734000,-0.17,-0.992,0.593,-15.9,26.37,-0.21
502109.781000,-0.159,-0.944,0.584,-9.28,9.7,-19.04
502109.828000,-0.115,-0.916,0.517,-7.87,10.47,-18.95
502109.875000,-0.087,-0.87,0.501,6.04,-1.34,-23.99
502109.921000,-0.009,-0.816,0.431,4.0,-4.0,-22.71
502109.968000,-0.019,-0.882,0.472,16.54,3.3,-6.53
502110.015000,0.114,-0.784,0.4,-4.64,-18.59,-9.03
502110.062000,0.154,-0.814,0.44,-1.74,-8.06,8.03
502110.109000,0.049,-0.875,0.536,23.5,4.94,19.44
502110.156000,-0.119,-0.934,0.692,45.53,6.2,18.31
502110.203000,-0.22,-0.87,0.709,31.28,-16.63,-7.51
502110.250000,-0.108,-0.795,0.595,12.57,-28.26,-14.53
502110.296000,-0.062,-0.794,0.55,15.93,-17.85,-5.16
502110.343000,0.027,-0.752,0.506,5.58,-16.94,-0.15
502110.390000,-0.008,-0.802,0.615,2.11,2.75,9.13
502110.437000,-0.046,-0.826,0.641,-7.35,0.52,0.0
502110.500000,-0.047,-0.798,0.717,-20.11,0.55,-8.97
502110.546000,0.007,-0.79,0.655,8.94,-14.13,5.68
502110.593000,0.052,-0.816,0.621,-2.93,-10.16,-2.32
502110.640000,-0.001,-0.863,0.705,8.24,-11.99,-7.48
502110.687000,0.002,-0.813,0.668,2.32,-14.44,-12.88
502110.734000,0.012,-0.847,0.67,-3.42,-16.3,-14.53
502110.781000,0.055,-0.871,0.615,-16.51,-18.31,-21.52
502110.843000,0.085,-0.857,0.63,-18.56,-16.02,-26.34
502110.890000,0.18,-0.841,0.607,-17.24,-22.86,-27.47
502110.937000,0.248,-0.93,0.764,-48.04,-16.94,-43.37
502111.000000,0.636,-1.211,0.777,-81.76,-45.44,-56.09
502111.046000,0.675,-1.318,1.006,-142.86,-46.82,-101.69
502111.093000,0.535,-1.511,0.881,-176.85,-69.77,-109.23
502111.140000,0.482,-1.098,0.406,-172.15,-51.48,-177.77
502111.187000,0.167,-0.613,0.108,-142.4,-32.29,-144.63
502111.234000,0.024,-0.494,-0.026,-53.07,-48.68,-57.62
502111.281000,0.134,-0.499,-0.409,-16.27,-38.85,-30.67
502111.328000,0.3,-0.494,-0.213,18.4,-42.91,-12.63
502111.375000,0.65,-0.708,-0.635,107.0,-35.34,72.33
502111.421000,0.654,-0.959,-0.699,-62.72,-23.87,8.61
502111.468000,0.702,-1.04,-1.025,-36.44,46.91,-30.12
502111.515000,0.506,-0.811,-0.775,-60.91,124.3,-81.45
502111.562000,0.393,-0.596,-0.64,-24.9,125.77,-35.68
502111.609000,0.362,-0.392,-0.448,5.01,139.56,-39.77
502111.656000,0.374,0.1,-0.331,-29.88,144.99,-62.78
502111.703000,0.169,0.226,0.264,-92.32,163.91,-33.08
502111.750000,0.109,0.319,0.293,-60.0,95.65,26.4
502111.796000,-0.037,-0.041,0.47,-214.88,108.46,63.48
502111.843000,0.002,-0.263,0.464,-187.48,32.17,92.68
502111.890000,-0.185,-0.67,0.163,-302.62,14.13,84.11
502111.937000,-0.075,-1.095,0.054,-147.59,-83.93,124.7
502111.984000,-0.381,-1.579,-0.072,-88.75,-104.53,150.24
502112.031000,-0.377,-1.736,-0.137,-39.98,-154.09,105.38
502112.078000,-0.126,-1.829,-0.281,11.6,-182.93,83.47
502112.140000,-0.48,-1.775,-0.144,-4.24,-187.87,18.16
502112.187000,-0.372,-1.689,-0.665,9.25,-249.89,-14.37
502112.234000,-0.159,-1.678,-1.223,16.42,-249.12,-38.79
502112.281000,-0.25,-1.58,-1.118,-2.93,-178.87,-93.05
502112.328000,-0.157,-1.46,-1.412,-16.51,-153.63,-116.58
502112.375000,-0.144,-1.338,-1.15,35.37,-78.62,-128.61
502112.437000,-0.089,-1.267,-0.872,17.82,-20.36,-147.13
502112.484000,0.01,-1.124,-0.938,9.64,-38.3,-141.88
502112.531000,-0.02,-1.046,-0.974,32.2,-17.7,-118.56
502112.578000,-0.112,-0.877,-1.011,31.92,37.87,-109.56
502112.625000,-0.157,-0.591,-0.942,15.14,71.57,-119.72
502112.671000,-0.042,-0.329,-0.811,18.34,82.95,-101.99
502112.718000,0.071,-0.286,-0.659,-20.26,116.15,-90.91
502112.765000,0.193,-0.327,-0.471,-60.73,137.67,-70.86
502112.812000,0.223,-0.419,-0.173,-22.22,139.5,-34.36
502112.859000,0.24,-0.439,-0.155,9.06,122.32,-13.79
502112.906000,0.421,-0.415,-0.008,30.52,115.02,-4.39
502112.953000,0.376,-0.453,0.058,-31.68,102.88,-12.85
502113.000000,0.371,-0.387,0.326,6.93,91.56,7.02
502113.046000,0.25,-0.283,0.438,-118.47,100.47,-24.72
502113.093000,0.193,-0.323,0.6,-47.73,48.46,25.06
502113.140000,0.462,-0.357,0.273,-43.98,-11.41,53.8
502113.187000,0.326,-0.481,0.235,-89.48,12.97,59.66
502113.234000,0.538,-0.865,0.342,-82.31,17.61,42.3
502113.281000,0.247,-0.583,0.275,-60.3,-14.34,51.73
502113.328000,0.19,-0.633,0.259,17.98,-2.35,97.96
502113.375000,0.321,-0.853,0.168,26.09,-50.14,148.93
502113.421000,0.104,-0.756,0.357,108.65,18.95,154.67
502113.468000,0.089,-1.18,0.467,67.84,-30.92,210.64
502113.515000,-0.304,-1.295,0.773,195.07,-31.8,219.12
502113.562000,-0.154,-1.521,0.501,48.4,-13.52,159.76
502113.609000,-0.498,-1.312,0.673,25.91,4.55,118.56
502113.671000,-0.333,-1.176,0.499,105.87,-15.66,93.91
502113.718000,-0.371,-1.046,0.348,47.79,-11.81,98.76
502113.765000,-0.522,-0.956,0.477,18.89,17.64,60.52
502113.812000,-0.468,-1.127,0.393,-4.06,6.59,63.6
502113.859000,-0.563,-0.983,0.454,4.46,32.14,31.01
502113.906000,-0.526,-1.016,0.396,-40.22,21.79,13.55
502113.953000,-0.599,-0.884,0.574,-8.06,25.88,4.91
502114.000000,-0.503,-0.886,0.443,-20.81,4.82,1.19
502114.046000,-0.551,-0.863,0.586,-18.28,5.77,-16.3
502114.093000,-0.536,-0.915,0.558,0.85,-44.56,0.12
502114.140000,-0.395,-0.799,0.422,-11.29,-23.68,-22.16
502114.187000,-0.475,-0.696,0.605,-1.13,-15.17,-16.75
502114.234000,-0.442,-0.628,0.508,-10.71,-23.5,-2.93
502114.281000,-0.421,-0.565,0.427,-78.49,-10.59,-13.09
502114.328000,-0.308,-0.553,0.288,-124.67,-12.76,-4.79
502114.375000,-0.317,-0.532,0.134,-113.65,-13.95,12.91
502114.421000,-0.416,-0.739,-0.018,-159.58,16.66,38.0
502114.468000,-0.465,-0.659,-0.028,-30.88,-2.17,67.69
502114.515000,-0.612,-0.795,-0.355,-114.05,53.59,72.02
502114.562000,-0.636,-0.942,-0.07,-196.33,72.94,47.94
502114.609000,-0.644,-0.844,-0.459,-185.4,85.88,24.54
502114.656000,-0.482,-1.003,-0.545,-243.14,61.92,-22.37
502114.703000,-0.618,-0.994,-0.716,-232.06,90.64,-68.27
502114.750000,-0.625,-1.093,-0.98,-138.22,100.04,-44.53
502114.796000,-0.426,-0.76,-0.823,24.72,88.56,-57.99
502114.843000,-0.31,-0.559,-0.75,62.75,39.46,-35.83
502114.906000,-0.203,-1.057,-0.86,76.66,70.8,-14.19
502114.953000,-0.425,-1.025,-0.619,130.38,17.3,-37.87
502115.000000,-0.498,-1.142,-0.346,263.86,-160.28,129.76
502115.046000,-0.553,-0.924,-0.312,227.33,-303.9,90.27
502115.093000,-0.369,-1.119,-0.505,257.64,-195.35,-68.18
502115.140000,-0.304,-0.731,-0.417,63.54,-11.17,-176.98
502115.187000,-0.263,-1.015,-0.228,-178.41,220.4,-205.57
502115.234000,-0.191,-1.032,-0.548,-160.07,281.62,-237.07
502115.281000,-0.238,-0.991,-0.151,-195.32,234.2,-222.36
502115.328000,0.105,-0.836,-0.246,-121.31,160.71,-132.85
502115.375000,0.272,-0.666,-0.211,-62.5,54.08,-90.85
502115.421000,0.506,-0.661,-0.618,-47.55,52.95,-22.68
502115.468000,0.407,-0.623,-0.321,18.13,-5.22,-14.47
502115.515000,0.469,-0.684,-0.528,-33.51,86.76,-22.28
502115.562000,0.31,-0.578,-0.038,43.03,12.94,-13.37
502115.609000,0.483,-0.638,-0.418,-49.71,29.3,1.5
502115.656000,0.504,-0.543,-0.253,-24.05,15.87,-27.01
502115.703000,0.56,-0.582,-0.539,-99.67,92.1,-38.73
502115.750000,0.481,-0.581,-0.229,-101.32,30.95,-64.67
502115.796000,0.636,-0.465,-0.555,-112.22,13.25,-45.9
502115.843000,0.68,-0.623,-0.458,-49.07,-10.07,3.57
502115.890000,0.788,-0.58,-0.644,-64.79,16.79,-28.14
502115.937000,0.665,-0.317,-0.679,-98.54,30.18,-60.73
502115.984000,0.598,-0.594,-0.503,-97.48,52.25,-11.08
502116.031000,0.755,-0.534,-0.381,-129.95,54.17,-92.93
502116.078000,0.743,-0.187,-0.438,-120.52,59.79,-118.78
502116.125000,0.826,-0.084,-0.377,-74.86,2.14,-110.45
502116.171000,0.786,0.084,-0.381,-57.74,50.6,-58.35
502116.218000,0.781,0.183,-0.396,11.05,-1.77,-10.16
502116.265000,0.951,0.069,-0.455,3.02,29.79,18.25
502116.312000,0.871,-0.031,-0.425,15.26,-0.31,27.07
502116.359000,0.984,-0.193,-0.546,19.62,14.98,24.38
502116.406000,0.92,-0.087,-0.37,22.64,26.25,-26.34
502116.453000,0.903,0.071,-0.396,29.69,13.18,-29.42
502116.500000,0.861,0.088,-0.26,42.21,15.5,-13.76
502116.546000,0.866,0.157,-0.45,36.99,-7.75,-10.59
502116.593000,0.863,0.105,-0.299,13.15,26.58,-15.32
502116.640000,0.876,0.162,-0.407,39.34,-10.83,2.84
502116.687000,0.901,-0.007,-0.311,-5.01,9.8,0.95
502116.734000,0.865,0.011,-0.361,1.68,-10.1,-5.68
502116.781000,0.926,0.083,-0.426,4.82,4.79,-12.27
502116.828000,0.918,0.101,-0.385,1.86,0.37,2.59
502116.875000,0.935,0.029,-0.318,-13.34,-1.31,-2.04
502116.921000,0.929,0.109,-0.383,-0.46,6.84,-5.01
502116.968000,0.905,0.09,-0.335,5.95,4.0,-7.02
502117.015000,0.952,0.077,-0.337,1.43,-5.37,3.85
502117.078000,1.242,0.097,-0.436,11.26,14.98,14.22
502117.140000,1.178,0.02,-0.355,8.24,9.55,27.47
502117.187000,1.087,-0.134,-0.317,2.23,32.69,25.12
502117.234000,0.889,-0.4,-0.412,15.93,15.84,48.98
502117.281000,0.797,-0.694,-0.429,24.69,35.31,22.31
502117.328000,0.655,-0.448,-0.349,62.93,42.54,-56.58
502117.375000,0.648,-0.284,-0.189,65.19,30.82,-79.04
502117.421000,0.892,0.557,-0.41,59.39,26.67,-113.44
502117.468000,0.955,0.932,-0.199,54.38,25.09,-43.61
502117.515000,1.039,1.057,-0.3,39.0,10.53,3.02
502117.578000,0.916,0.853,-0.312,-13.49,10.62,37.51
502117.625000,0.865,0.687,-0.411,-46.05,18.98,60.46
502117.671000,0.776,0.442,-0.338,-56.4,23.8,78.65
502117.718000,0.761,0.192,-0.256,-74.95,37.63,80.14
502117.765000,0.695,0.052,-0.266,-78.37,28.6,96.26
502117.812000,0.717,-0.143,-0.333,-89.3,19.17,87.22
502117.859000,0.658,-0.457,-0.181,-75.56,22.71,100.68
502117.906000,0.635,-0.714,-0.234,-62.5,-8.97,90.46
502117.953000,0.525,-1.162,-0.109,-3.11,-15.63,96.35
502118.000000,0.23,-1.382,0.122,210.18,-84.17,131.14
502118.046000,0.404,-1.257,0.4,320.69,-159.0,123.23
502118.093000,0.388,-1.112,0.169,584.55,-299.02,204.44
502118.140000,0.516,-0.852,0.491,565.72,-309.88,233.99
502118.187000,0.641,-0.76,0.475,288.89,-210.21,115.67
502118.234000,0.677,-0.767,0.176,156.07,-131.9,98.09
502118.281000,0.516,-0.994,0.284,-35.77,-60.46,40.22
502118.328000,0.593,-1.147,-0.276,35.46,-77.03,76.11
502118.375000,0.412,-1.17,0.052,-9.31,0.24,49.26
502118.421000,0.429,-1.076,-0.069,-45.14,-24.32,14.98
502118.468000,0.306,-1.098,0.081,-87.22,-13.58,9.19
502118.515000,0.534,-0.992,-0.332,-5.83,-21.76,1.43
502118.562000,0.509,-0.876,-0.234,-86.28,47.21,-35.4
502118.609000,0.508,-0.771,-0.005,-67.02,75.69,-10.99
502118.656000,0.164,-0.652,0.892,-21.91,62.11,23.99
502118.703000,-0.097,-0.594,1.317,105.75,-67.38,84.81
502118.750000,0.15,-0.854,0.421,-16.11,-145.63,43.06
502118.796000,0.589,-1.226,-0.656,-34.79,-103.21,-2.04
502118.843000,0.817,-1.063,-0.95,-6.04,25.79,-3.14
502118.890000,0.388,-0.845,-0.041,-35.92,112.7,4.0
502118.937000,0.164,-0.905,0.573,-13.18,70.1,39.31
502119.000000,0.008,-1.086,0.812,-90.09,-12.39,-10.04
502119.046000,0.484,-0.98,-0.145,2.35,-70.44,-9.89
502119.093000,0.583,-0.934,-0.391,-22.37,-20.63,-17.98
502119.140000,0.495,-0.907,-0.22,48.52,4.36,20.11
502119.187000,0.414,-0.947,-0.093,-3.11,5.49,12.7
502119.234000,0.352,-0.909,-0.008,4.09,10.65,10.86
502119.281000,0.429,-0.881,-0.11,-4.82,19.84,0.79
502119.328000,0.356,-0.902,0.007,9.61,25.51,6.84
502119.375000,0.301,-0.911,-0.012,-27.16,49.44,7.14
502119.421000,0.404,-0.783,-0.493,-2.99,23.1,18.74
502119.468000,0.314,-0.764,-0.387,-60.3,49.17,21.97
502119.515000,0.242,-0.677,-0.401,-22.1,44.83,59.85
502119.562000,0.116,-0.892,-0.117,-18.95,59.33,80.05
502119.609000,-0.157,-0.949,0.494,-4.91,52.06,95.25
502119.656000,-0.063,-1.088,0.49,56.15,-22.25,132.11
502119.703000,-0.074,-1.149,0.385,-15.47,13.15,60.18
502119.750000,-0.092,-1.209,0.333,-1.07,-3.48,47.91
502119.796000,0.003,-1.281,0.093,-10.19,13.37,19.9
502119.843000,-0.035,-1.227,0.152,9.77,10.13,1.46
502119.890000,-0.032,-1.205,0.115,11.66,4.43,-1.65
502119.937000,0.038,-1.358,-0.133,-88.99,67.32,-60.98
502119.984000,0.107,-1.361,-0.314,-154.76,128.21,-111.88
502120.031000,0.113,-1.606,-0.848,-442.79,365.4,-246.35
502120.078000,0.254,-1.092,-0.52,-322.86,317.24,-312.51
502120.125000,0.241,-0.847,0.169,-331.98,323.47,-286.84
502120.171000,0.32,-0.103,0.018,-223.79,129.8,-108.07
502120.218000,0.558,0.184,0.183,-94.27,87.59,-106.6
502120.265000,0.819,0.302,-0.042,-19.56,-22.92,-6.35
502120.312000,0.831,0.098,-0.169,-8.24,15.96,15.56
502120.359000,0.915,-0.102,-0.218,48.89,2.35,50.69
502120.406000,0.93,-0.075,-0.137,24.54,20.54,8.27
502120.453000,0.968,-0.027,-0.255,31.83,5.65,7.26
502120.500000,0.979,0.076,-0.145,-0.64,-1.01,-9.31
502120.546000,0.982,0.005,-0.234,16.39,-3.85,10.1
502120.609000,0.98,0.032,-0.23,0.58,-10.16,2.23
502120.656000,0.939,-0.035,-0.167,-0.03,9.67,-9.49
502120.703000,0.987,-0.006,-0.228,-4.03,3.33,-1.95
502120.750000,0.94,0.015,-0.165,-1.37,0.4,-3.39
502120.796000,0.993,-0.048,-0.221,-5.86,4.18,0.58
502120.843000,0.924,0.002,-0.177,7.35,-6.74,4.94
502120.890000,0.938,-0.042,-0.184,2.26,-1.46,-3.27
502120.937000,0.937,-0.094,-0.049,47.3,-26.76,9.52
502120.984000,0.67,-0.372,0.206,350.81,-127.48,65.49
502121.031000,0.676,-1.115,-0.273,744.13,-244.15,233.65
502121.078000,0.573,-1.465,-0.492,916.62,-293.28,399.09
502121.125000,0.869,-0.991,-0.672,453.63,-112.92,154.52
502121.171000,0.26,-0.456,0.72,23.13,16.39,-41.51
502121.218000,0.583,-0.791,0.177,77.46,-34.3,71.2
502121.281000,0.412,-0.787,0.479,-32.29,11.08,-14.95
502121.328000,0.48,-0.808,0.261,2.38,-3.57,28.78
502121.375000,0.413,-0.846,0.431,-38.24,0.49,-14.28
502121.421000,0.47,-0.87,0.302,-3.81,5.68,8.55
502121.468000,0.412,-0.852,0.425,-19.26,3.78,-15.38
502121.515000,0.495,-0.818,0.274,-17.49,3.02,6.84
502121.562000,0.439,-0.847,0.365,9.37,3.51,1.65
502121.609000,0.46,-0.797,0.324,-0.92,4.94,6.47
502121.656000,0.416,-0.82,0.386,1.43,-2.72,1.07
502121.703000,0.449,-0.808,0.332,-10.59,2.04,2.96
502121.750000,0.446,-0.83,0.322,17.37,-0.34,13.61
502121.796000,0.441,-0.823,0.354,-11.78,1.43,2.17
502121.843000,0.459,-0.844,0.286,-2.69,-1.53,7.42
502121.890000,0.491,-0.802,0.172,-54.17,18.46,-3.72
502121.937000,0.66,-0.955,-0.541,-380.08,165.17,-90.3
502121.984000,0.517,-1.5,-0.359,-703.97,317.97,-275.19
502122.031000,0.559,-0.957,-0.267,-583.88,265.36,-359.2
502122.078000,0.55,-0.288,0.208,-274.15,173.65,-224.13
502122.125000,0.91,0.009,0.016,-23.65,18.22,21.12
502122.171000,0.963,-0.131,-0.169,-34.55,-6.23,22.37
502122.218000,0.905,-0.148,-0.155,-35.22,-12.42,2.17
502122.265000,0.976,-0.015,-0.373,-7.02,-13.73,-1.22
502122.312000,0.922,-0.113,-0.191,-0.27,-9.46,8.42
502122.359000,0.977,-0.17,-0.276,25.85,-17.3,13.18
502122.406000,0.971,-0.113,-0.247,-8.18,9.34,-3.36
502122.453000,0.947,-0.105,-0.226,15.26,-4.91,6.16
502122.500000,0.977,-0.084,-0.348,-7.2,-0.43,-1.22
502122.546000,0.918,-0.085,-0.195,8.0,-3.3,-1.34
502122.593000,0.956,-0.114,-0.267,-4.94,0.43,3.75
502122.640000,0.928,-0.116,-0.243,3.17,2.5,-0.46
502122.687000,0.949,-0.143,-0.259,-4.18,1.71,1.74
502122.734000,0.922,-0.109,-0.231,9.13,-3.51,-2.44
502122.781000,0.944,-0.11,-0.284,-6.13,-0.58,0.12
502122.828000,0.929,-0.106,-0.213,2.93,0.34,-3.14
502122.875000,0.967,-0.128,-0.304,-7.81,-0.31,1.86
502122.921000,0.932,-0.097,-0.252,3.72,-2.2,-2.29
502122.968000,0.968,-0.115,-0.323,-0.24,-0.34,2.56
502123.015000,0.934,-0.114,-0.236,-6.07,4.36,-7.75
502123.062000,0.939,-0.097,-0.28,6.56,-4.3,5.43
502123.109000,0.943,-0.104,-0.265,-5.52,1.5,-6.01
502123.156000,0.942,-0.073,-0.315,0.76,1.86,3.66
502123.203000,0.928,-0.097,-0.245,0.15,-1.83,-0.7
502123.250000,0.951,-0.117,-0.307,-7.35,4.82,-0.61
502123.312000,0.942,-0.09,-0.254,0.73,-0.61,0.73
502123.359000,0.937,-0.11,-0.282,-1.07,1.19,-0.95
502123.406000,0.914,-0.103,-0.234,2.47,-2.23,1.89
502123.453000,0.924,-0.125,-0.262,-4.85,-1.68,-1.68
502123.500000,0.947,-0.08,-0.274,2.01,-3.6,0.06
502123.546000,0.937,-0.105,-0.259,-2.23,-3.05,2.29
502123.593000,0.938,-0.096,-0.283,-0.64,-3.66,-1.62
502123.640000,0.94,-0.085,-0.271,-2.41,-1.1,-0.82
502123.687000,0.943,-0.102,-0.303,-2.9,-2.17,0.89
502123.750000,0.939,-0.099,-0.282,-2.32,-1.13,1.4
502123.796000,0.938,-0.104,-0.271,1.04,-0.89,0.31
502123.843000,0.934,-0.103,-0.273,-1.98,-0.85,-1.89
502123.890000,0.947,-0.089,-0.3,0.09,-0.34,1.8
502123.937000,0.935,-0.112,-0.285,-1.5,1.68,-0.43
502123.984000,0.918,-0.083,-0.272,-0.34,0.92,-2.44
502124.031000,0.939,-0.09,-0.296,1.46,-2.81,2.04
502124.078000,0.93,-0.105,-0.312,2.44,-3.54,0.85
502124.125000,0.912,-0.067,-0.304,0.43,-0.21,-3.14
502124.171000,0.944,-0.107,-0.326,-0.46,-1.1,-0.67
502124.218000,0.937,-0.077,-0.348,-6.87,8.15,-5.86
502124.265000,0.965,-0.128,-0.307,-24.38,30.06,-13.46
502124.312000,0.942,-0.047,-0.214,-5.55,36.68,-21.91
502124.359000,0.907,0.069,-0.145,14.22,5.46,-3.57
502124.406000,0.982,-0.079,-0.197,6.1,-6.78,24.14
502124.453000,0.945,-0.098,-0.283,-12.36,-7.93,5.1
502124.500000,0.942,-0.096,-0.288,-2.17,-0.49,1.01
502124.546000,0.946,-0.111,-0.226,-4.73,0.27,-6.81
502124.593000,0.963,-0.065,-0.246,4.12,2.66,4.33
502124.640000,0.961,-0.067,-0.22,-3.91,4.58,-1.43
502124.687000,0.959,-0.052,-0.241,-4.85,0.4,0.92
502124.734000,0.946,-0.066,-0.235,-9.7,1.31,-1.07
502124.781000,0.96,-0.092,-0.307,-8.55,10.07,5.22
502124.828000,0.906,-0.095,-0.2,6.1,1.1,1.07
502124.875000,0.944,-0.111,-0.447,-10.96,4.97,8.36
502124.937000,0.967,-0.246,-0.283,25.51,21.94,5.43
502124.984000,1.02,-0.203,-0.056,29.85,41.35,-20.29
502125.031000,0.744,0.419,1.08,17.12,53.47,-15.2
502125.078000,0.299,0.16,0.093,-101.23,-225.59,107.03
502125.125000,0.814,-0.696,-1.673,-72.54,-188.12,102.24
502125.171000,0.948,-0.593,-1.018,5.46,28.57,-34.42
502125.218000,1.048,-0.026,-0.531,44.16,60.34,-65.77
502125.265000,1.009,0.102,-0.242,25.79,33.88,-31.43
502125.312000,1.027,0.011,-0.373,5.19,11.81,-11.99
502125.359000,0.934,-0.019,-0.255,-18.25,17.58,-21.58
502125.406000,0.886,-0.053,-0.319,38.0,-2.2,21.06
502125.453000,0.604,-0.303,0.182,246.07,-87.1,112.28
502125.500000,0.334,-0.882,0.011,655.14,-269.75,347.42
502125.546000,0.573,-1.309,-0.282,802.85,-258.34,483.54
502125.593000,0.58,-0.965,-0.549,357.68,-224.74,172.03
502125.640000,0.246,-0.837,0.35,-155.95,24.69,-104.4
502125.703000,0.45,-1.064,0.12,4.18,-47.52,24.2
502125.750000,0.558,-0.939,-0.26,-101.44,74.16,-39.43
502125.796000,0.517,-0.989,-0.124,-332.74,146.86,-123.26
502125.843000,0.588,-0.777,-0.484,-314.95,128.03,-125.55
502125.890000,0.617,-0.887,-0.443,-381.27,164.56,-185.67
502125.953000,0.62,-0.656,-0.066,-332.13,181.77,-206.0
502126.000000,0.754,-0.265,-0.213,-201.33,60.79,-103.37
502126.046000,0.833,-0.183,-0.464,-71.35,-2.2,1.68
502126.093000,0.837,-0.31,-0.275,-75.81,31.07,-17.91
502126.140000,0.892,-0.093,-0.413,-18.95,-3.66,-0.37
502126.187000,0.878,-0.119,-0.377,-10.93,-3.75,14.68
502126.234000,0.843,-0.112,-0.447,-17.27,-8.73,8.21
502126.281000,0.894,-0.202,-0.384,-28.78,15.81,4.21
502126.343000,0.849,-0.052,-0.49,-3.02,-10.1,1.86
502126.390000,0.931,-0.248,-0.282,-42.73,25.76,-33.69
502126.437000,0.894,0.016,-0.514,-2.66,-10.53,-7.17
502126.484000,0.88,-0.114,-0.331,-11.6,10.74,-9.7
502126.531000,0.898,-0.029,-0.352,11.29,-5.34,2.35
502126.578000,0.916,-0.064,-0.35,-7.2,5.86,-2.53
502126.625000,0.872,0.003,-0.348,5.25,-7.17,7.2
502126.671000,0.958,-0.121,-0.35,-13.55,0.76,1.37
502126.718000,0.881,-0.015,-0.39,0.55,2.59,3.94
502126.765000,0.903,-0.069,-0.417,12.94,-12.73,17.67
502126.812000,0.919,-0.073,-0.377,-8.09,3.97,-4.18
502126.859000,0.911,-0.154,-0.49,-3.45,-7.78,24.69
502126.921000,0.883,-0.132,-0.471,0.37,9.09,-11.87
502126.984000,0.867,-0.236,-0.402,48.86,-7.14,30.52
502127.031000,0.842,-0.247,-0.343,42.18,23.93,-1.16
502127.078000,0.878,-0.285,-0.337,61.98,4.39,15.02
502127.125000,0.883,-0.194,-0.392,58.66,-8.45,1.83
502127.171000,0.887,-0.251,-0.31,35.95,12.24,-13.09
502127.218000,0.86,-0.191,-0.352,48.95,2.23,-4.7
502127.265000,0.855,-0.156,-0.277,24.69,5.62,-28.23
502127.312000,0.893,-0.143,-0.321,36.84,3.45,1.59
502127.359000,0.876,-0.136,-0.282,30.58,-5.43,-5.28
502127.406000,0.928,-0.159,-0.329,43.64,-9.28,15.05
502127.453000,0.952,-0.173,-0.331,41.75,3.6,10.68
502127.500000,0.928,-0.135,-0.288,15.63,3.97,-3.42
502127.546000,0.922,-0.2,-0.196,31.59,-4.82,16.85
502127.609000,0.959,-0.314,-0.458,139.65,-20.51,62.53
502127.656000,0.934,-0.437,-0.255,21.18,9.95,-7.51
502127.703000,0.845,-0.405,-0.148,26.95,17.94,0.58
502127.750000,0.893,-0.419,-0.123,31.62,-13.31,11.29
502127.796000,0.936,-0.342,-0.28,0.24,2.47,-9.86
502127.843000,0.841,-0.326,-0.125,21.49,-4.06,-0.21
502127.890000,0.851,-0.353,-0.197,9.95,-16.66,9.8
502127.937000,0.882,-0.384,-0.217,-11.99,-6.81,-0.24
502127.984000,0.858,-0.403,-0.291,-2.75,-10.32,5.89
502128.031000,0.861,-0.41,-0.227,-6.41,-8.06,-6.74
502128.078000,0.855,-0.36,-0.266,-9.89,-5.25,-2.47
502128.140000,0.867,-0.388,-0.283,0.37,-7.93,-2.53
502128.187000,0.866,-0.404,-0.274,-10.25,-4.06,-2.47
502128.250000,0.892,-0.377,-0.356,0.79,-2.87,-6.23
502128.296000,0.842,-0.402,-0.279,-12.63,-0.98,-10.13
502128.343000,0.894,-0.343,-0.309,1.19,-1.5,-10.68
502128.390000,0.895,-0.321,-0.288,-0.43,3.94,-11.81
502128.437000,0.858,-0.307,-0.267,-9.77,3.94,-9.19
502128.484000,0.868,-0.341,-0.356,-3.48,-3.3,7.08
502128.531000,0.883,-0.407,-0.333,10.8,-3.45,2.9
502128.578000,0.881,-0.342,-0.309,-6.87,4.12,-16.11
502128.625000,0.88,-0.3,-0.272,2.93,3.91,-15.93
502128.687000,0.847,-0.258,-0.237,8.97,9.61,-7.45
502128.734000,0.893,-0.321,-0.3,-0.12,-3.51,-2.53
502128.781000,0.912,-0.287,-0.3,-8.06,14.59,-13.15
502128.828000,0.851,-0.327,-0.224,17.55,-0.34,-0.15
502128.875000,0.915,-0.328,-0.275,15.93,-2.78,1.98
502128.921000,0.889,-0.322,-0.242,-5.01,2.26,-13.61
502128.968000,0.903,-0.336,-0.284,34.3,-8.48,12.39
502129.015000,0.845,-0.35,-0.195,16.3,-0.55,-0.15
502129.062000,0.893,-0.299,-0.26,52.83,-7.84,25.06
502129.109000,0.893,-0.366,-0.268,14.22,-4.33,8.21
502129.156000,0.848,-0.331,-0.2,42.82,-9.06,15.84
502129.203000,0.9,-0.369,-0.263,-16.36,3.23,-12.54
502129.250000,0.825,-0.342,-0.195,-13.31,10.71,-27.65
502129.296000,0.834,-0.353,-0.193,5.98,-29.05,-8.82
502129.343000,0.905,-0.339,-0.288,20.91,-38.42,-4.85
502129.390000,0.913,-0.305,-0.304,-3.33,-32.5,-12.24
502129.437000,0.895,-0.283,-0.364,3.11,-23.35,7.23
502129.484000,0.873,-0.298,-0.336,-26.8,-1.34,-0.12
502129.531000,0.83,-0.314,-0.314,-11.69,-4.3,9.52
502129.578000,0.843,-0.288,-0.351,-3.23,-3.3,19.5
502129.625000,0.827,-0.354,-0.36,-1.98,-4.73,25.91
502129.671000,0.852,-0.36,-0.348,6.01,-1.34,20.84
502129.718000,0.839,-0.375,-0.324,0.21,-3.72,16.11
502129.765000,0.809,-0.42,-0.373,5.31,-13.82,26.64
502129.812000,0.824,-0.472,-0.408,6.2,-8.7,31.34
502129.859000,0.811,-0.475,-0.407,27.8,-8.58,37.63
502129.906000,0.792,-0.506,-0.402,49.93,-8.79,62.17
502129.953000,0.746,-0.624,-0.356,45.32,-6.26,56.15
502130.000000,0.729,-0.615,-0.371,52.83,1.59,53.77
502130.046000,0.71,-0.665,-0.254,17.37,9.89,19.65
502130.093000,0.723,-0.614,-0.261,13.49,12.18,1.65
502130.140000,0.741,-0.62,-0.191,-20.51,27.47,-19.17
502130.187000,0.699,-0.582,-0.185,-7.87,6.84,-9.98
502130.234000,0.715,-0.589,-0.231,-10.32,1.19,-4.36
502130.281000,0.691,-0.611,-0.235,-9.61,-1.25,-1.1
502130.328000,0.705,-0.644,-0.279,-22.0,-0.43,-8.91
502130.375000,0.74,-0.652,-0.303,-21.12,2.17,-11.72
502130.421000,0.733,-0.695,-0.268,-36.56,11.38,-22.52
502130.468000,0.786,-0.657,-0.306,-17.15,8.12,-26.31
502130.515000,0.817,-0.608,-0.307,-42.76,20.14,-45.01
502130.562000,0.843,-0.543,-0.285,-25.12,14.98,-48.92
502130.609000,0.897,-0.455,-0.307,-8.42,10.71,-35.86
502130.656000,0.946,-0.465,-0.289,-2.11,15.96,-30.64
502130.703000,0.93,-0.446,-0.296,5.58,6.84,-23.93
502130.750000,0.932,-0.477,-0.368,18.22,7.72,-4.79
502130.796000,0.892,-0.443,-0.289,7.78,21.7,-26.86
502130.843000,0.846,-0.398,-0.226,18.01,11.35,-10.74
502130.906000,0.853,-0.433,-0.305,8.21,10.41,-13.21
502130.953000,0.864,-0.375,-0.264,12.51,12.88,-23.01
502131.000000,0.895,-0.338,-0.252,7.63,13.21,-25.64
502131.046000,0.924,-0.29,-0.256,-6.78,16.48,-36.84
502131.093000,0.902,-0.207,-0.193,-4.12,28.11,-31.74
502131.140000,0.883,-0.198,-0.16,-13.55,24.48,-23.96
502131.187000,0.883,-0.213,-0.158,-7.87,23.59,-10.77
502131.234000,0.928,-0.213,-0.17,-25.67,32.41,-15.35
502131.281000,0.904,-0.234,-0.062,-7.29,31.53,-1.98
502131.328000,0.968,-0.263,-0.104,-29.97,23.16,-7.66
502131.375000,1.009,-0.252,-0.065,-19.26,26.15,-10.25
502131.421000,1.032,-0.225,-0.097,-37.48,29.36,-19.9
502131.468000,0.958,-0.221,-0.071,-31.77,39.4,-10.01
502131.531000,0.919,-0.196,-0.108,-39.74,29.33,-16.24
502131.578000,0.919,-0.269,-0.003,-18.25,35.98,-9.43
502131.625000,0.882,-0.202,-0.016,-44.1,39.09,-33.57
502131.671000,0.849,-0.211,0.07,-18.59,39.0,-25.42
502131.718000,0.826,-0.165,0.217,-38.18,38.21,-40.41
502131.765000,0.88,-0.125,0.113,-6.32,15.08,-26.25
502131.812000,0.901,-0.061,0.181,-9.7,9.55,-37.23
502131.859000,0.995,0.012,0.07,17.0,1.62,-28.47
502131.906000,0.985,0.072,0.126,-7.35,5.13,-31.95
502131.953000,1.013,0.085,0.088,14.83,5.19,-12.94
502132.000000,0.936,0.111,0.14,-8.7,5.95,-23.47
502132.046000,0.913,0.07,0.21,-12.85,14.1,-21.06
502132.093000,0.9,0.156,0.187,-34.61,-10.25,-20.11
502132.140000,0.962,0.131,0.168,-20.69,-3.51,-5.43
502132.187000,0.955,0.105,0.166,-3.94,-6.56,1.04
502132.234000,0.951,0.124,0.177,-0.12,-5.43,1.1
502132.281000,0.923,0.153,0.091,-1.56,-19.65,5.46
502132.328000,0.949,0.066,0.094,5.46,-8.94,12.42
502132.375000,0.952,0.121,0.061,0.85,-9.98,4.55
502132.421000,0.969,0.091,0.016,-1.53,-8.36,5.49
502132.468000,0.969,0.098,0.03,-4.03,-2.17,-0.03
502132.515000,0.989,0.09,0.051,0.98,-6.99,-1.92
502132.562000,1.044,0.096,0.021,-2.17,-8.15,0.49
502132.609000,1.024,0.072,0.043,1.43,-5.01,8.0
502132.656000,1.021,0.065,0.01,0.7,-3.42,10.83
502132.703000,0.97,0.02,0.078,0.06,2.93,10.59
502132.750000,0.959,0.017,0.071,-9.28,3.48,2.08
502132.796000,0.955,0.018,0.088,-3.88,2.84,3.14
502132.843000,0.949,0.033,0.083,-3.94,1.77,1.77
502132.890000,0.969,0.023,0.1,-6.81,0.03,1.31
502132.937000,0.99,0.028,0.066,-5.16,-0.18,1.31
502132.984000,1.012,0.03,0.056,-6.38,-3.48,3.6
502133.031000,1.014,0.028,0.04,-6.23,0.49,5.62
502133.078000,0.992,0.004,0.098,-0.55,-0.67,10.5
502133.140000,1.016,-0.002,0.053,-4.24,4.0,7.84
502133.187000,0.971,-0.031,0.065,-5.22,-0.76,8.33
502133.234000,0.965,-0.049,0.074,-2.47,5.22,9.64
502133.281000,0.959,-0.05,0.069,2.38,-2.01,8.64
502133.328000,0.986,-0.05,0.064,0.64,3.3,3.72
502133.375000,0.962,-0.041,0.117,2.93,1.77,2.99
502133.421000,0.986,-0.032,0.083,-8.45,1.25,-4.36
502133.468000,0.983,-0.038,0.112,3.57,1.28,4.27
502133.515000,0.977,-0.044,0.081,-5.49,0.55,1.16
502133.562000,0.947,-0.042,0.098,-1.71,-1.25,3.39
502133.609000,0.952,-0.074,0.079,0.58,-3.39,1.95
502133.656000,0.952,-0.063,0.069,0.89,-4.49,-3.54
502133.703000,0.978,-0.027,0.03,7.57,-0.37,-4.61
502133.750000,0.977,0.028,0.057,5.83,0.27,-3.05
502133.796000,0.954,0.023,0.076,9.46,-7.11,2.01
502133.843000,0.994,0.02,0.107,-8.64,-2.23,-7.75
502133.890000,0.996,0.035,0.077,-9.98,-8.48,0.79
502133.937000,1.014,-0.024,0.024,-13.49,-5.95,3.11
502133.984000,0.98,-0.029,0.008,-6.38,-4.64,9.0
502134.031000,0.998,-0.062,0.031,0.24,-4.3,7.29
502134.078000,0.978,-0.041,0.041,-10.9,-0.46,-4.7
502134.125000,1.007,-0.067,0.021,0.37,-6.32,6.74
502134.171000,0.967,-0.034,0.02,-0.21,-0.46,3.05
502134.218000,0.97,-0.062,0.015,2.99,-5.4,5.25
502134.265000,1.001,-0.03,-0.014,-4.88,1.25,-1.86
502134.328000,1.028,-0.045,0.001,-2.08,-2.9,4.03
502134.375000,1.026,-0.068,0.063,1.59,5.52,-2.78
502134.421000,0.978,-0.019,0.094,3.54,5.37,0.24
502134.468000,0.973,-0.018,0.038,-4.82,-2.01,1.62
502134.515000,0.953,-0.052,-0.026,3.57,-2.26,11.32
502134.562000,0.913,-0.055,0.032,-4.3,1.92,-4.06
502134.609000,1.01,-0.067,0.035,-12.36,6.62,-8.36
502134.656000,0.935,0.007,0.043,-2.2,-2.81,-10.19
502134.703000,0.979,-0.028,0.057,-3.78,-0.85,-7.39
502134.750000,0.933,0.016,0.02,-1.65,-6.01,-5.4
502134.796000,0.916,-0.032,0.065,13.15,-6.26,5.13
502134.843000,0.723,0.065,0.009,2.23,-13.49,-5.86
502134.890000,0.274,-0.1,-0.137,42.79,-38.97,34.0
502134.937000,0.146,-0.173,-0.17,90.55,-73.46,10.07
502134.984000,0.002,0.133,-0.176,87.86,-110.05,-52.03
502135.031000,0.185,0.172,-0.128,81.36,-142.89,-22.74
502135.078000,0.703,0.003,-0.308,80.48,-207.53,30.03
502135.125000,0.989,-0.099,-0.559,50.63,-228.68,37.54
502135.171000,0.914,-0.132,-0.872,58.5,-188.79,105.47
502135.218000,0.618,-0.322,-1.036,78.92,-163.7,140.78
502135.281000,0.527,-0.752,-1.236,12.21,-171.15,172.31
502135.328000,0.15,-0.764,-0.952,32.78,-113.56,165.84
502135.375000,0.298,-0.627,-0.971,-42.85,-110.17,112.86
502135.421000,0.066,-0.641,-0.778,8.7,-60.24,114.38
502135.468000,0.001,-0.554,-0.639,-0.82,-108.13,107.85
502135.515000,-0.162,-0.766,-1.027,-41.96,-103.58,97.78
502135.562000,-0.279,-0.41,-0.976,-47.79,-59.85,6.68
502135.609000,-0.406,-0.668,-1.084,-83.47,-98.54,38.76
502135.671000,-0.396,-0.261,-1.227,-56.34,-70.56,-6.74
502135.718000,-0.458,-0.096,-0.989,-96.47,-86.64,28.44
502135.765000,-0.641,-0.329,-1.283,-105.23,-23.47,4.88
502135.812000,-0.675,-0.38,-1.024,-31.74,-26.64,2.04
502135.859000,-0.452,-0.263,-1.088,-10.62,-10.25,-8.15
502135.906000,-0.496,-0.174,-0.841,-8.79,9.64,-27.07
502135.953000,-0.482,-0.181,-0.873,-17.4,4.12,-16.36
502136.000000,-0.54,-0.184,-0.781,-9.7,7.17,-20.33
502136.046000,-0.542,-0.13,-0.804,-16.33,3.75,-17.33
502136.093000,-0.56,-0.033,-0.761,1.37,-3.63,-7.66
502136.140000,-0.569,-0.092,-0.808,-28.57,-12.76,-5.92
502136.187000,-0.49,-0.158,-0.873,0.55,0.85,0.76
502136.234000,-0.443,-0.191,-1.071,3.14,-2.29,-0.24
502136.281000,-0.361,-0.316,-1.566,38.45,23.47,8.33
502136.328000,-0.262,-0.547,-1.738,90.09,69.37,8.73
502136.375000,-0.134,-0.591,-1.856,114.6,128.97,-12.51
502136.421000,-0.394,-0.897,-1.536,82.95,198.71,-55.85
502136.468000,-0.259,-0.892,-1.493,150.03,207.59,-69.03
502136.531000,-0.339,-0.989,-1.289,88.99,261.39,-130.95
502136.578000,-0.162,-0.855,-1.144,125.55,223.49,-154.82
502136.625000,0.064,-0.717,-0.818,120.0,237.4,-162.18
502136.671000,0.228,-0.336,-0.404,87.19,222.66,-149.97
502136.718000,0.135,-0.317,-0.043,32.78,201.24,-76.08
502136.765000,0.217,-0.134,-0.089,-24.38,134.65,-92.38
502136.812000,0.228,-0.203,-0.027,-78.74,141.3,-70.47
502136.859000,0.057,-0.128,0.028,-63.66,74.98,-71.17
502136.906000,0.416,-0.211,-0.1,-80.78,41.05,-65.71
502136.953000,0.433,0.013,0.082,-30.92,33.57,-79.38
502137.000000,0.646,0.072,0.194,13.4,-8.94,-19.99
502137.046000,0.824,0.075,0.102,26.43,-20.84,-5.04
502137.093000,0.898,0.012,0.088,3.17,-30.98,-6.41
502137.140000,1.072,-0.025,-0.135,-19.32,-28.99,-15.53
502137.187000,1.024,-0.031,-0.053,-6.04,-23.26,-7.54
502137.234000,1.097,-0.079,-0.198,-20.75,-26.55,5.92
502137.281000,1.007,-0.116,-0.122,-7.14,-12.18,16.36
502137.328000,1.013,-0.198,-0.147,-9.13,-11.57,3.54
502137.375000,0.979,-0.151,-0.094,-4.33,3.66,3.14
502137.421000,0.981,-0.159,-0.076,7.63,-5.4,9.22
502137.468000,0.968,-0.129,-0.118,11.81,-5.8,21.42
502137.515000,0.969,-0.191,-0.01,7.17,-3.33,16.75
502137.562000,0.965,-0.207,-0.022,1.77,-5.01,19.47
502137.609000,0.972,-0.278,-0.02,4.06,-7.93,21.18
502137.671000,0.948,-0.228,-0.045,6.29,2.87,10.77
502137.718000,0.929,-0.248,-0.052,-7.45,-7.2,13.06
502137.765000,0.92,-0.278,-0.129,-12.54,-4.73,13.95
502137.812000,0.931,-0.339,-0.094,-15.35,-2.56,7.32
502137.859000,0.955,-0.343,-0.087,-3.48,-4.49,5.89
502137.906000,0.94,-0.283,-0.111,-2.14,0.92,-2.96
502137.953000,0.939,-0.284,-0.101,-9.09,-3.66,3.85
502138.000000,0.999,-0.349,-0.148,-8.79,-4.46,4.12
502138.046000,0.917,-0.291,-0.064,10.8,10.41,-3.05
502138.093000,0.917,-0.194,-0.042,-4.61,5.65,-11.78
502138.140000,0.961,-0.218,-0.1,-14.31,-11.02,-0.12
502138.187000,1.013,-0.311,-0.187,-7.39,-2.93,8.97
502138.234000,0.894,-0.232,-0.105,3.88,13.34,-3.97
502138.281000,0.93,-0.258,-0.091,-0.06,-0.37,5.07
502138.328000,0.935,-0.262,-0.13,-4.55,2.66,1.46
502138.390000,0.945,-0.289,-0.089,-0.24,4.3,2.41
502138.437000,0.955,-0.281,-0.108,-3.81,2.56,0.79
502138.500000,0.943,-0.321,-0.125,-1.95,4.06,2.32
502138.546000,0.903,-0.333,-0.088,5.07,7.48,-0.55
502138.593000,0.874,-0.315,-0.009,1.4,10.77,-9.22
502138.640000,0.907,-0.255,-0.043,1.22,-3.94,-12.12
502138.687000,0.946,-0.217,-0.095,-7.66,-7.48,-17.0
502138.734000,0.979,-0.208,-0.115,-5.71,-5.52,-12.79
502138.781000,0.969,-0.195,-0.123,3.33,0.24,0.31
502138.828000,0.923,-0.198,-0.129,2.17,-7.2,3.72
502138.875000,0.924,-0.189,-0.151,-11.02,-10.65,0.27
502138.921000,0.989,-0.263,-0.143,-9.58,-6.44,0.76
502138.968000,0.955,-0.239,-0.013,-4.46,3.51,-9.7
502139.015000,1.003,-0.224,-0.01,-14.1,-5.92,-15.5
502139.062000,0.951,-0.152,-0.073,-10.74,-2.81,-6.81
502139.109000,0.909,-0.194,-0.09,-0.18,-10.32,10.28
502139.156000,0.902,-0.224,-0.167,1.07,-11.9,14.5
502139.203000,0.897,-0.269,-0.187,-0.15,-13.7,8.0
502139.250000,0.949,-0.265,-0.242,-1.89,-14.22,-2.41
502139.296000,1.002,-0.223,-0.267,-5.77,-4.27,-10.44
502139.343000,1.017,-0.216,-0.236,9.28,2.44,1.71
502139.390000,0.996,-0.196,-0.209,2.87,9.31,-1.59
502139.453000,0.976,-0.214,-0.169,7.11,8.21,2.04
502139.500000,0.974,-0.206,-0.11,-1.77,13.18,-2.41
502139.546000,0.919,-0.225,-0.12,7.17,4.3,12.24
502139.593000,0.944,-0.261,-0.143,7.54,4.27,13.49
502139.640000,0.891,-0.253,-0.097,6.93,6.68,3.69
502139.687000,0.916,-0.234,-0.108,0.18,4.67,-1.46
502139.734000,0.926,-0.21,-0.094,-3.14,6.32,-6.81
502139.781000,0.947,-0.21,-0.087,2.69,-2.75,2.41
502139.828000,0.965,-0.234,-0.112,-4.49,3.11,0.73
502139.875000,0.947,-0.226,-0.11,-6.56,2.5,0.0
502139.921000,0.929,-0.258,-0.126,2.26,2.04,6.29
502139.968000,0.931,-0.276,-0.085,-3.3,3.66,-0.09
502140.015000,0.944,-0.232,-0.108,-1.8,0.7,-1.5
502140.062000,0.94,-0.252,-0.08,-1.46,1.8,-0.09
502140.109000,0.932,-0.233,-0.114,-3.6,0.27,-1.04
502140.156000,0.932,-0.241,-0.093,2.32,-0.64,2.41
502140.203000,0.945,-0.234,-0.098,-2.38,-0.24,-2.17
502140.265000,0.96,-0.222,-0.126,-2.04,-2.38,-1.28
502140.312000,0.965,-0.224,-0.121,-1.86,-0.49,-0.27
502140.359000,0.967,-0.245,-0.112,-1.4,1.83,1.59
502140.406000,0.971,-0.249,-0.122,-5.46,3.27,-2.9
502140.468000,0.938,-0.25,-0.104,2.35,3.85,2.5
502140.531000,0.929,-0.246,-0.064,-1.95,6.26,-3.17
502140.593000,0.92,-0.239,-0.065,-2.78,-1.16,-2.56
502140.640000,0.947,-0.249,-0.096,-3.2,-1.16,-3.36
502140.687000,0.963,-0.223,-0.113,0.31,1.71,-5.95
502140.734000,0.981,-0.198,-0.106,-1.07,3.72,-7.9
502140.796000,0.94,-0.174,-0.069,-0.46,4.79,-0.98
502140.843000,0.949,-0.217,-0.11,2.5,-0.4,4.03
502140.890000,0.94,-0.211,-0.064,-5.68,0.98,-3.75
502140.937000,0.966,-0.201,-0.119,-1.86,-2.26,0.15
502140.984000,0.952,-0.202,-0.105,-3.08,3.69,0.24
502141.031000,0.951,-0.213,-0.105,-2.11,-2.59,1.07
502141.078000,0.96,-0.218,-0.095,-1.13,3.88,1.25
502141.125000,0.945,-0.207,-0.086,-2.66,-0.34,1.22
502141.171000,0.952,-0.221,-0.097,-0.03,0.67,2.66
502141.218000,0.932,-0.222,-0.085,-2.08,0.49,0.61
502141.265000,0.937,-0.224,-0.075,0.95,-0.79,1.53
502141.312000,0.908,-0.221,-0.062,1.07,-2.11,1.1
502141.359000,0.93,-0.225,-0.06,0.43,-4.49,-0.4
502141.406000,0.928,-0.214,-0.059,-0.46,-4.82,-1.43
502141.453000,0.988,-0.224,-0.133,-4.88,-11.02,-1.62
502141.500000,1.01,-0.245,-0.122,-1.07,-5.19,0.49
502141.546000,1.082,-0.235,-0.262,-1.31,-6.16,4.09
502141.593000,1.036,-0.294,-0.245,4.97,4.52,11.11
502141.640000,0.979,-0.292,-0.224,3.33,12.82,3.45
502141.687000,0.913,-0.261,-0.142,0.37,15.05,-4.85
502141.734000,0.884,-0.231,-0.097,9.52,13.89,-3.6
502141.781000,0.916,-0.17,-0.076,11.81,8.12,-3.54
502141.828000,0.949,-0.165,-0.027,18.37,9.64,5.22
502141.875000,0.93,-0.196,0.031,17.12,6.29,12.51
502141.937000,0.922,-0.269,0.019,-4.3,-1.4,3.33
502141.984000,0.905,-0.263,-0.015,-5.37,-2.62,-0.89
502142.031000,0.929,-0.281,-0.04,-12.05,-5.71,-6.84
502142.078000,0.934,-0.249,-0.072,-3.14,-4.73,-3.23
502142.125000,0.949,-0.247,-0.07,-3.51,-7.14,-6.78
502142.171000,0.968,-0.221,-0.103,-1.22,-1.43,-6.41
502142.218000,0.956,-0.234,-0.075,0.37,-1.13,-3.2
502142.265000,0.982,-0.229,-0.162,-2.47,-2.17,-5.86
502142.312000,0.948,-0.262,-0.043,2.9,12.39,-7.81
502142.359000,0.954,-0.216,-0.075,-0.37,-2.53,-12.82
502142.406000,0.98,-0.217,-0.077,3.33,2.72,-12.39
502142.453000,0.942,-0.182,-0.056,11.6,-6.35,-3.75
502142.500000,0.975,-0.185,-0.121,7.84,-0.18,-4.49
502142.546000,0.907,-0.169,-0.014,9.03,0.95,-8.33
502142.593000,0.939,-0.139,-0.093,15.87,-7.51,-5.37
502142.640000,0.95,-0.114,-0.047,8.24,-6.38,-11.9
502142.687000,0.981,-0.083,-0.088,1.8,-10.59,-11.41
502142.734000,0.965,-0.091,-0.11,8.27,-11.75,1.16
502142.781000,0.973,-0.101,-0.168,4.06,-8.73,0.43
502142.828000,0.925,-0.135,-0.141,9.83,-15.81,7.32
502142.875000,0.947,-0.15,-0.178,10.25,-6.41,6.71
502142.921000,0.917,-0.166,-0.117,7.35,-7.84,3.54
502142.968000,0.996,-0.191,-0.147,8.82,-13.82,3.2
502143.015000,0.986,-0.197,-0.156,0.79,-15.11,-3.57
502143.062000,0.948,-0.219,-0.145,12.21,-1.13,1.62
502143.109000,0.901,-0.208,-0.077,6.32,4.58,-0.82
502143.156000,0.903,-0.208,-0.015,11.23,4.12,8.24
502143.203000,0.91,-0.227,-0.057,4.27,-13.76,23.5
502143.250000,0.915,-0.312,-0.251,-12.27,-24.26,16.91
502143.296000,0.965,-0.356,-0.308,-24.41,-17.82,2.44
502143.343000,1.017,-0.263,-0.285,-21.82,-7.42,-10.71
502143.406000,0.963,-0.238,-0.266,-21.21,-5.04,-1.56
502143.453000,0.9,-0.205,-0.177,-7.17,3.94,-2.2
502143.500000,0.913,-0.136,-0.094,-19.71,-6.04,-9.03
502143.546000,0.931,-0.099,-0.185,-24.35,-14.65,-1.8
502143.593000,0.942,-0.109,-0.254,-28.02,-14.34,3.2
502143.640000,0.898,-0.155,-0.286,-16.42,-16.79,7.39
502143.687000,0.886,-0.18,-0.276,-10.8,-11.69,0.82
502143.734000,0.907,-0.156,-0.266,0.82,-18.46,-7.75
502143.781000,1.009,-0.121,-0.337,1.86,-20.54,-20.48
502143.828000,1.016,-0.107,-0.373,11.47,-16.05,-19.71
502143.875000,0.956,-0.105,-0.253,43.82,3.78,-9.64
502143.921000,0.915,-0.088,-0.268,30.52,0.85,-12.76
502143.968000,0.865,-0.108,-0.279,23.41,1.43,-5.13
502144.015000,0.826,-0.134,-0.279,16.97,-1.22,12.48
502144.062000,0.87,-0.211,-0.194,7.69,-8.21,23.99
502144.109000,0.931,-0.259,-0.4,-33.85,-38.36,12.79
502144.156000,1.034,-0.28,-0.606,-22.22,-24.51,7.78
502144.203000,1.015,-0.196,-0.431,-22.77,5.52,-11.96
502144.250000,0.978,-0.179,-0.437,-11.84,7.11,2.99
502144.296000,0.956,-0.234,-0.441,-3.75,7.75,13.49
502144.343000,0.953,-0.234,-0.424,-12.02,19.32,-2.53
502144.390000,0.919,-0.231,-0.359,8.7,21.79,8.3
502144.437000,0.966,-0.201,-0.36,-1.59,25.67,-5.74
502144.484000,0.909,-0.188,-0.278,12.76,31.43,7.05
502144.531000,0.939,-0.205,-0.339,15.38,23.62,10.13
502144.578000,0.892,-0.2,-0.237,12.05,38.24,0.24
502144.625000,0.874,-0.19,-0.244,10.96,25.97,0.98
502144.671000,0.866,-0.212,-0.196,12.27,28.44,-1.37
502144.718000,0.863,-0.164,-0.136,2.47,23.16,-13.82
502144.765000,0.917,-0.15,-0.121,4.03,17.82,-11.72
502144.812000,0.944,-0.121,-0.118,-10.35,18.62,-20.48
502144.859000,0.948,-0.103,-0.129,-0.34,10.68,-5.71
502144.906000,0.977,-0.128,-0.153,0.58,14.28,-1.56
502144.953000,0.945,-0.13,-0.148,1.53,11.32,-0.03
502145.000000,0.98,-0.169,-0.14,4.46,16.6,1.95
502145.046000,0.917,-0.14,-0.04,-0.82,19.17,-5.83
502145.109000,0.947,-0.164,-0.089,-5.55,7.72,-2.69
502145.171000,0.983,-0.167,-0.073,-3.33,10.22,-3.91
502145.218000,1.03,-0.175,-0.089,1.1,10.04,-3.51
502145.265000,0.969,-0.154,-0.051,5.1,11.96,-1.68
502145.312000,0.921,-0.14,-0.012,8.24,9.58,-1.13
502145.359000,0.91,-0.115,0.007,4.18,11.75,-3.81
502145.406000,0.922,-0.08,0.033,4.79,1.92,-3.69
502145.453000,0.979,-0.101,-0.017,0.15,0.79,-0.89
502145.500000,0.95,-0.089,0.022,-4.36,-1.37,-2.72
502145.546000,0.998,-0.113,-0.049,-1.68,-8.55,4.18
502145.609000,0.957,-0.13,-0.028,-4.52,1.07,1.8
502145.656000,0.966,-0.145,-0.028,-2.69,-1.8,2.04
502145.703000,0.974,-0.149,-0.026,-3.27,-1.68,2.29
502145.750000,0.979,-0.16,-0.04,-5.25,-2.53,0.73
502145.796000,0.98,-0.173,-0.047,-0.85,-2.32,3.51
502145.843000,0.975,-0.16,-0.048,-0.7,3.11,-0.55
502145.890000,0.972,-0.153,-0.027,1.19,0.52,1.07
502145.937000,0.96,-0.15,-0.038,-0.4,4.49,-0.27
502145.984000,0.949,-0.16,-0.002,5.13,-0.95,2.66
502146.031000,0.951,-0.143,-0.038,0.61,-2.47,-0.49
502146.078000,0.957,-0.147,-0.022,3.33,-1.22,0.34
502146.125000,0.972,-0.135,-0.053,0.21,-5.28,-2.29
502146.171000,0.986,-0.129,-0.048,1.22,-1.22,-0.34
502146.218000,0.989,-0.141,-0.027,0.58,-3.54,2.23
502146.281000,0.974,-0.157,-0.058,-1.43,-1.62,3.54
502146.328000,0.96,-0.175,-0.053,0.27,-3.42,3.17
502146.375000,0.969,-0.162,-0.066,-3.14,-5.4,-1.31
502146.421000,0.963,-0.158,-0.046,1.68,-3.3,1.22
502146.468000,0.971,-0.155,-0.064,-0.7,-2.35,-0.95
502146.515000,0.975,-0.155,-0.059,-0.31,-3.45,-0.12
502146.562000,0.978,-0.167,-0.083,0.12,-4.03,0.79
502146.609000,0.986,-0.165,-0.092,-2.17,-1.46,-1.59
502146.656000,0.968,-0.17,-0.075,2.26,-1.22,1.28
502146.703000,0.966,-0.158,-0.093,-0.27,0.58,-3.42
502146.750000,0.956,-0.142,-0.051,3.14,-0.24,-0.85
502146.796000,0.97,-0.124,-0.079,-0.06,-2.59,-3.33
502146.843000,0.96,-0.127,-0.048,-1.04,-1.65,-0.03
502146.890000,0.97,-0.147,-0.076,0.61,-5.55,1.89
502146.937000,0.96,-0.15,-0.076,-3.39,-1.83,-1.19
502146.984000,0.97,-0.147,-0.078,0.31,-2.35,0.61
502147.031000,0.978,-0.146,-0.096,-0.55,-3.11,0.21
502147.078000,0.968,-0.148,-0.083,-0.7,-0.24,0.58
502147.125000,0.974,-0.157,-0.086,-0.92,-1.56,0.03
502147.171000,0.98,-0.158,-0.104,-0.58,-2.59,-0.82
502147.218000,0.98,-0.155,-0.096,0.61,0.34,-0.43
502147.265000,0.972,-0.139,-0.099,-0.43,0.89,-1.4
502147.312000,0.97,-0.15,-0.079,2.23,2.29,1.13
502147.359000,0.963,-0.133,-0.091,-1.01,-0.49,-1.59
502147.406000,0.962,-0.149,-0.083,-0.15,0.15,-0.4
502147.453000,0.96,-0.143,-0.083,1.19,-1.07,-0.61
502147.500000,0.97,-0.117,-0.099,-1.25,-0.21,-2.84
502147.546000,0.967,-0.129,-0.076,0.4,0.12,-0.15
502147.609000,0.968,-0.13,-0.095,-1.04,-0.61,0.76
502147.656000,0.973,-0.139,-0.101,-2.38,0.58,0.24
502147.703000,0.961,-0.136,-0.091,0.27,-0.18,1.68
502147.750000,0.965,-0.145,-0.094,-0.98,-0.37,1.01
502147.796000,0.965,-0.148,-0.085,-0.61,-1.1,0.92
502147.843000,0.961,-0.143,-0.087,-0.92,-1.01,0.79
502147.890000,0.972,-0.143,-0.087,0.0,-2.32,0.37
502147.937000,0.979,-0.143,-0.094,-2.66,-1.1,0.12
502147.984000,0.966,-0.16,-0.1,-0.61,-1.31,1.28
502148.031000,0.961,-0.16,-0.096,-0.43,-2.41,-0.52
502148.078000,0.977,-0.144,-0.115,-2.26,-1.89,-3.51
502148.125000,0.975,-0.143,-0.099,0.24,0.06,-0.76
502148.171000,0.968,-0.152,-0.103,2.53,0.18,-1.1
502148.218000,0.967,-0.14,-0.105,1.68,0.55,-0.18
502148.265000,0.968,-0.132,-0.091,2.69,-0.73,-0.64
502148.312000,0.97,-0.132,-0.098,1.28,1.86,-0.55
502148.359000,0.97,-0.135,-0.097,0.58,0.4,-0.98
502148.406000,0.963,-0.125,-0.11,-0.79,0.85,-1.04
502148.453000,0.964,-0.131,-0.096,1.95,0.4,0.03
502148.500000,0.967,-0.132,-0.098,-1.37,1.71,-2.26
502148.546000,0.968,-0.13,-0.099,0.15,-0.55,0.09
502148.593000,0.979,-0.135,-0.115,0.06,-1.04,-0.37
502148.640000,0.968,-0.122,-0.101,0.31,2.08,-1.07
502148.687000,0.963,-0.122,-0.086,1.04,0.55,-0.34
502148.734000,0.965,-0.112,-0.094,-1.95,1.01,-1.62
502148.781000,0.96,-0.12,-0.089,-0.31,-0.64,1.5
502148.828000,0.962,-0.133,-0.097,-0.85,-2.04,1.71
502148.875000,0.979,-0.129,-0.102,-2.81,0.46,-1.13
502148.921000,0.972,-0.125,-0.108,0.15,-0.61,1.65
502148.968000,0.973,-0.131,-0.105,-2.38,0.82,0.37
502149.015000,0.975,-0.128,-0.111,-0.95,0.03,1.28
502149.062000,0.968,-0.122,-0.088,0.55,3.63,1.37
502149.109000,0.965,-0.119,-0.088,-2.84,1.13,1.28
502149.156000,0.972,-0.151,-0.106,-0.7,2.53,2.96
502149.203000,0.959,-0.138,-0.085,-0.98,2.47,0.12
502149.250000,0.971,-0.145,-0.093,0.55,1.37,1.25
502149.296000,0.976,-0.13,-0.083,-2.59,2.9,-1.74
502149.343000,0.977,-0.142,-0.103,1.4,2.72,2.56
502149.390000,0.97,-0.141,-0.081,-1.19,7.32,-1.53
502149.437000,0.971,-0.134,-0.083,1.5,3.2,2.26
502149.484000,0.969,-0.149,-0.08,0.15,5.13,0.18
502149.531000,0.966,-0.132,-0.076,1.1,3.33,0.34
502149.578000,0.955,-0.126,-0.063,-0.09,3.08,0.12
502149.625000,0.959,-0.134,-0.057,2.26,1.04,1.71
502149.671000,0.966,-0.121,-0.06,-3.88,-1.37,-2.11
502149.718000,0.971,-0.125,-0.084,0.03,-0.24,2.32
502149.765000,0.965,-0.127,-0.055,-2.93,0.52,-0.31
502149.812000,0.986,-0.124,-0.089,-2.44,0.21,1.86
502149.859000,0.966,-0.144,-0.062,-1.31,0.89,2.75
502149.906000,0.98,-0.136,-0.071,-3.11,2.62,0.98
502149.953000,0.971,-0.148,-0.075,-3.97,1.22,2.26
502150.000000,0.967,-0.162,-0.084,-0.89,2.56,2.9
502150.046000,0.976,-0.147,-0.081,-3.6,2.75,-1.92
502150.093000,0.983,-0.151,-0.08,0.21,2.44,0.58
502150.140000,0.994,-0.136,-0.087,-1.89,6.68,-2.38
502150.187000,0.973,-0.132,-0.051,0.98,4.58,0.92
502150.234000,0.982,-0.137,-0.049,-3.94,6.35,-1.77
502150.281000,0.99,-0.133,-0.062,-3.57,6.07,-0.06
502150.328000,0.975,-0.163,-0.054,-0.15,6.29,2.47
502150.375000,0.975,-0.165,-0.043,-0.98,10.99,0.4
502150.421000,0.963,-0.154,-0.018,2.9,13.28,-0.37
502150.468000,0.963,-0.152,-0.006,1.53,6.1,-2.29
502150.515000,0.964,-0.151,-0.009,4.82,6.84,0.79
502150.562000,0.945,-0.134,0.028,3.78,2.93,-1.68
502150.609000,0.975,-0.137,-0.008,1.77,3.88,-1.95
502150.656000,0.965,-0.126,0.02,5.25,-0.61,0.24
502150.703000,0.976,-0.114,-0.016,1.22,2.69,-0.85
502150.750000,0.968,-0.128,0.002,3.17,2.47,1.71
502150.796000,0.986,-0.125,-0.028,-0.27,4.12,0.06
502150.843000,0.97,-0.14,-0.01,-1.07,2.29,-0.79
502150.890000,0.978,-0.162,-0.016,1.86,-0.89,2.66
502150.937000,0.987,-0.159,-0.026,-3.05,7.32,-3.69
502150.984000,0.974,-0.162,0.011,4.7,5.19,1.59
502151.031000,0.971,-0.148,-0.005,1.04,4.49,-3.85
502151.078000,0.973,-0.145,0.026,8.03,1.74,-0.79
502151.125000,0.973,-0.121,0.016,0.24,1.98,-3.45
502151.171000,0.983,-0.133,0.011,3.33,1.68,-0.43
502151.218000,0.96,-0.123,0.015,1.1,3.81,-1.31
502151.265000,0.98,-0.138,0.0,1.65,1.37,-3.33
502151.312000,0.992,-0.134,-0.042,3.02,9.89,-2.59
502151.359000,0.975,-0.131,0.032,1.43,7.84,-5.13
502151.406000,0.986,-0.117,0.001,4.39,5.37,-3.33
502151.453000,0.989,-0.107,0.028,5.37,1.43,-1.92
502151.500000,0.988,-0.098,0.016,2.56,2.66,-2.35
502151.546000,0.98,-0.089,0.033,3.63,0.24,-2.26
502151.593000,0.966,-0.12,0.069,0.24,2.17,-0.24
502151.640000,0.961,-0.107,0.036,2.26,-4.82,-1.89
502151.687000,0.975,-0.104,0.05,1.07,2.29,-3.69
502151.734000,0.975,-0.11,0.061,2.29,-1.16,-1.53
502151.781000,0.969,-0.112,0.049,0.06,2.2,-2.11
502151.828000,0.949,-0.134,0.056,2.01,-7.29,-3.6
502151.875000,0.982,-0.136,0.029,-5.58,2.53,-11.69
502151.921000,0.959,-0.107,0.052,-3.08,-0.89,-13.21
502151.968000,0.996,-0.095,0.023,2.62,-5.4,-7.87
502152.015000,1.001,-0.063,0.002,0.03,-1.28,-9.52
502152.062000,1.079,-0.031,-0.07,-3.42,3.72,-11.93
502152.109000,1.155,0.062,-0.116,-9.67,12.91,-20.91
502152.156000,1.183,0.214,-0.072,-13.34,28.72,-11.32
502152.203000,1.083,0.403,-0.076,-32.69,29.21,-0.85
502152.250000,0.967,0.552,-0.013,-52.25,38.61,-2.38
502152.296000,0.702,0.657,0.08,-104.56,33.14,-4.85
502152.343000,0.523,0.511,0.232,-110.72,19.07,11.35
502152.390000,0.312,0.3,0.146,-144.9,-26.15,33.94
502152.437000,0.366,-0.159,0.003,-84.38,-34.85,60.15
502152.484000,0.335,-0.3,0.037,-108.31,-69.92,71.26
502152.531000,0.346,-0.508,-0.15,-62.14,-78.65,90.12
502152.578000,0.466,-0.549,-0.113,-55.45,-57.65,93.91
502152.625000,0.318,-0.755,-0.351,-83.93,-134.8,54.69
502152.671000,0.578,-0.708,-0.461,-59.82,-106.11,32.23
502152.718000,0.399,-0.807,-0.749,-28.84,-125.43,39.95
502152.765000,0.215,-0.767,-0.449,-27.86,-109.84,27.86
502152.812000,0.498,-0.798,-0.816,-5.31,-134.34,12.33
502152.859000,0.374,-0.949,-0.778,-10.56,-150.33,-25.18
502152.906000,0.525,-0.847,-1.049,-24.87,-124.15,-76.82
502152.953000,0.278,-0.94,-0.895,63.91,-136.3,-1.98
502153.000000,0.423,-0.942,-1.05,23.99,-169.01,-120.76
502153.046000,0.221,-0.862,-1.075,49.5,-157.72,-129.31
502153.093000,0.251,-0.867,-1.29,47.03,-185.83,-187.51
502153.140000,0.247,-0.365,-1.51,6.78,-138.07,-242.41
502153.187000,0.422,-0.429,-1.742,78.95,-104.74,-193.91
502153.234000,0.356,-0.394,-1.763,24.69,-62.38,-245.09
502153.281000,0.526,-0.113,-1.838,54.78,41.08,-206.73
502153.328000,0.62,-0.074,-1.828,43.24,93.45,-162.45
502153.375000,0.505,0.091,-1.708,40.22,150.27,-134.31
502153.437000,0.417,0.036,-1.392,17.03,157.99,-83.56
502153.484000,0.463,0.052,-1.15,-7.29,164.01,-68.18
502153.531000,0.371,0.065,-0.893,-23.77,148.35,-31.31
502153.578000,0.558,0.058,-0.911,-27.31,129.34,-16.45
502153.625000,0.433,0.036,-0.627,-39.98,142.12,-2.04
502153.671000,0.511,0.036,-0.659,-38.03,120.76,21.79
502153.734000,0.434,-0.036,-0.475,-57.01,137.52,24.96
502153.796000,0.546,-0.127,-0.277,-47.24,126.1,18.25
502153.843000,0.646,-0.095,-0.126,-66.32,106.48,-9.34
502153.890000,0.59,-0.101,0.001,-72.57,107.12,-4.7
502153.937000,0.633,-0.077,0.058,-67.29,99.49,5.28
502153.984000,0.46,-0.268,0.418,-71.44,98.3,23.96
502154.031000,0.491,-0.416,0.534,-86.15,61.28,4.33
502154.078000,0.602,-0.615,0.514,-78.07,5.74,5.98
502154.125000,0.754,-0.602,0.401,-54.35,1.8,-10.41
502154.171000,0.843,-0.542,0.405,-33.57,-6.99,-7.17
502154.234000,0.932,-0.473,0.371,-9.58,-0.55,-2.93
502154.281000,0.875,-0.327,0.323,-5.16,-0.18,-5.74
502154.328000,0.928,-0.287,0.314,-3.33,-4.27,-9.98
502154.375000,0.89,-0.252,0.329,-2.96,-5.28,-10.01
502154.421000,0.941,-0.238,0.296,-6.13,-3.45,-12.33
502154.468000,0.934,-0.202,0.267,-2.01,-4.58,-7.75
502154.515000,0.953,-0.219,0.275,-1.83,-2.32,-0.76
502154.562000,0.909,-0.228,0.308,0.79,-3.05,3.08
502154.609000,0.939,-0.246,0.267,0.46,-4.58,3.17
502154.656000,0.909,-0.212,0.274,1.1,-2.38,0.37
502154.703000,0.929,-0.246,0.256,4.03,-5.01,9.09
502154.750000,0.927,-0.265,0.261,2.11,-2.44,3.14
502154.796000,0.893,-0.254,0.263,-1.56,-3.6,-1.04
502154.843000,0.963,-0.256,0.218,0.12,-1.77,-5.58
502154.890000,0.913,-0.218,0.266,1.22,-2.81,-3.08
502154.937000,0.963,-0.236,0.223,4.94,0.98,0.31
502154.984000,0.921,-0.223,0.258,-2.99,0.06,-7.9
502155.031000,0.939,-0.228,0.255,1.77,-1.01,-0.31
502155.078000,0.94,-0.219,0.233,-4.55,-1.28,-9.4
502155.125000,0.927,-0.216,0.254,1.07,-2.96,-1.13
502155.171000,0.948,-0.216,0.213,-0.64,-0.52,-6.71
502155.218000,0.933,-0.193,0.258,-3.27,-1.22,-7.35
502155.265000,0.971,-0.197,0.221,0.49,-2.04,-3.3
502155.312000,0.931,-0.2,0.251,-2.56,1.86,-3.94
502155.359000,0.965,-0.211,0.232,-1.74,-0.21,-1.07
502155.406000,0.935,-0.201,0.241,0.06,2.38,-0.92
502155.453000,0.953,-0.202,0.198,-0.89,-2.44,-1.98
502155.500000,0.925,-0.195,0.246,-0.85,3.39,-1.83
502155.546000,0.94,-0.204,0.222,1.43,-1.01,0.12
502155.593000,0.94,-0.209,0.255,0.82,-0.55,-1.31
502155.640000,0.936,-0.197,0.235,-1.65,-2.04,-2.9
502155.687000,0.925,-0.205,0.253,3.11,-0.76,0.95
502155.734000,0.944,-0.183,0.231,-2.32,-1.95,-6.56
502155.781000,0.949,-0.186,0.226,0.03,-1.83,-0.89
502155.828000,0.958,-0.193,0.233,0.12,1.13,-1.92
502155.875000,0.946,-0.183,0.24,0.92,-1.07,-0.31
502155.921000,0.964,-0.195,0.206,-1.46,-0.49,-1.4
502155.968000,0.944,-0.19,0.251,1.37,3.94,-1.31
502156.015000,0.949,-0.167,0.227,-1.71,2.99,-3.36
502156.062000,0.937,-0.179,0.259,-1.59,3.23,-2.38
502156.109000,0.936,-0.18,0.228,-0.27,-0.34,-2.11
502156.156000,0.933,-0.17,0.27,0.06,2.44,-0.98
502156.203000,0.94,-0.17,0.238,0.06,-1.59,-1.01
502156.250000,0.946,-0.165,0.239,-2.44,-1.01,-2.38
502156.296000,0.937,-0.186,0.245,0.7,-1.22,1.56
502156.343000,0.966,-0.175,0.23,-4.91,0.0,-5.04
502156.390000,0.933,-0.163,0.261,2.93,-0.06,5.28
502156.437000,0.948,-0.193,0.226,-1.46,-2.47,1.59
502156.484000,0.929,-0.183,0.251,-4.21,0.09,-3.6
502156.531000,0.951,-0.187,0.228,0.58,-0.7,-2.56
502156.578000,0.943,-0.169,0.25,-2.99,-1.74,-5.83
502156.625000,0.946,-0.16,0.224,0.64,-1.07,-0.37
502156.671000,0.938,-0.177,0.233,-1.62,-2.14,-0.55
502156.718000,0.946,-0.16,0.211,-2.75,-2.78,-3.23
502156.765000,0.926,-0.164,0.246,-2.11,-2.11,0.43
502156.812000,0.951,-0.181,0.212,-4.46,-3.48,-2.75
502156.859000,0.954,-0.153,0.217,-2.44,-3.17,-4.15
502156.906000,0.947,-0.154,0.213,-0.89,-3.6,-0.34
502156.953000,0.968,-0.171,0.21,0.34,-4.97,1.28
502157.000000,0.944,-0.147,0.218,-0.18,-1.01,0.7
502157.046000,0.957,-0.16,0.198,-2.44,-6.26,1.43
502157.093000,0.944,-0.16,0.184,0.06,-3.75,2.72
502157.140000,0.944,-0.154,0.185,-0.61,-2.84,-1.13
502157.187000,0.956,-0.159,0.21,2.01,-2.69,3.05
502157.234000,0.941,-0.158,0.185,-2.47,-2.96,-1.28
502157.281000,0.964,-0.175,0.194,1.74,-3.23,3.72
502157.328000,0.938,-0.168,0.199,-2.59,-1.53,-1.4
502157.375000,0.959,-0.171,0.194,-1.71,-2.87,0.43
502157.421000,0.954,-0.163,0.194,0.92,-4.43,0.92
502157.484000,0.957,-0.156,0.18,-1.19,-3.23,-0.09
502157.531000,0.965,-0.175,0.167,-0.61,-3.51,0.03
502157.578000,0.983,-0.157,0.148,-2.35,-3.3,-3.94
502157.625000,0.965,-0.155,0.177,2.04,1.83,1.77
502157.671000,0.97,-0.159,0.176,-2.04,-2.59,-0.06
502157.718000,0.958,-0.167,0.168,1.56,2.53,1.46
502157.765000,0.956,-0.18,0.174,0.03,-1.43,-0.58
502157.812000,0.957,-0.157,0.173,-0.24,2.41,-2.08
502157.859000,0.962,-0.163,0.187,-0.27,-1.22,0.52
502157.906000,0.956,-0.16,0.178,-2.5,0.24,-1.53
502157.953000,0.959,-0.161,0.158,-0.06,-0.98,1.07
502158.015000,0.958,-0.179,0.185,-1.37,0.82,-1.56
502158.062000,0.968,-0.171,0.163,1.8,1.01,0.61
502158.109000,0.947,-0.151,0.187,0.09,0.79,-1.5
502158.156000,0.96,-0.155,0.174,-0.52,0.76,-1.68
502158.203000,0.944,-0.156,0.17,0.73,-1.4,0.21
502158.250000,0.959,-0.152,0.181,-1.43,1.34,-2.41
502158.296000,0.954,-0.164,0.192,-0.27,-2.23,1.22
502158.343000,0.955,-0.16,0.16,-0.64,0.67,-0.95
502158.390000,0.971,-0.156,0.182,0.4,-0.89,0.06
502158.437000,0.967,-0.156,0.155,0.95,-0.09,0.49
502158.484000,0.965,-0.146,0.17,0.4,0.89,0.49
502158.531000,0.947,-0.163,0.175,1.37,0.85,3.08
502158.578000,0.953,-0.162,0.166,-0.95,0.03,-0.27
502158.625000,0.953,-0.144,0.172,0.7,-1.74,0.4
502158.671000,0.965,-0.166,0.165,-2.26,0.03,-1.1
502158.718000,0.975,-0.152,0.157,-0.55,-0.89,-0.61
502158.765000,0.967,-0.156,0.15,-1.13,0.43,-1.07
502158.828000,0.965,-0.168,0.162,-1.77,-0.98,-0.55
502158.875000,0.951,-0.162,0.187,2.23,1.53,-0.15
502158.921000,0.957,-0.154,0.164,-1.34,-2.04,-2.56
502158.968000,0.968,-0.156,0.167,0.21,0.98,-2.35
502159.015000,0.962,-0.146,0.167,1.22,-0.43,-0.55
502159.062000,0.962,-0.146,0.162,0.31,0.89,-1.98
502159.109000,0.963,-0.139,0.168,-0.58,0.82,-1.86
502159.156000,0.953,-0.152,0.165,1.04,0.92,1.31
502159.203000,0.949,-0.137,0.177,0.03,0.03,-0.76
502159.250000,0.961,-0.145,0.162,-1.19,-2.66,-0.27
502159.296000,0.96,-0.142,0.169,0.18,0.34,0.52
502159.343000,0.972,-0.156,0.164,0.7,-1.53,1.46
502159.390000,0.96,-0.151,0.166,-1.25,2.9,-0.98
502159.437000,0.977,-0.154,0.149,-0.85,-1.1,-1.19
502159.484000,0.948,-0.149,0.191,2.66,4.12,0.49
502159.531000,0.949,-0.159,0.178,-0.92,-2.32,-1.56
502159.578000,0.958,-0.157,0.165,0.95,0.61,-3.3
502159.625000,0.955,-0.135,0.173,0.58,-1.28,-3.11
502159.671000,0.981,-0.147,0.16,2.99,-0.15,-2.08
502159.718000,0.975,-0.132,0.177,2.66,0.18,-2.53
502159.765000,0.997,-0.126,0.136,-0.03,0.58,-5.62
502159.812000,1.029,-0.113,0.127,-2.11,0.55,-6.47
502159.875000,1.158,0.076,0.056,-12.48,10.28,-17.37
502159.921000,1.192,0.199,0.055,-25.82,14.83,-9.09
502159.968000,1.101,0.276,0.02,-54.05,26.83,-2.87
502160.015000,0.874,0.201,0.08,-50.57,40.35,29.11
502160.062000,0.685,0.222,0.165,-85.3,26.52,1.37
502160.109000,0.612,0.113,0.168,-100.96,13.86,9.7
502160.156000,0.469,0.089,0.209,-117.16,-4.49,-17.12
502160.203000,0.454,-0.081,0.118,-113.99,-43.46,-4.58
502160.250000,0.384,-0.151,0.016,-95.95,-42.48,-11.66
502160.296000,0.254,-0.183,0.077,-103.0,-80.29,9.8
502160.343000,0.327,-0.297,-0.059,-88.29,-92.75,-6.13
502160.390000,0.282,-0.559,-0.14,-51.3,-141.39,49.65
502160.437000,0.464,-0.608,-0.581,-69.92,-174.47,-11.32
502160.484000,0.255,-0.739,-0.377,-40.74,-167.12,32.56
502160.531000,0.638,-0.932,-0.948,-34.85,-211.65,-19.07
502160.578000,0.606,-0.958,-0.771,16.48,-179.91,18.43
502160.625000,0.584,-0.898,-1.234,20.05,-212.81,-81.88
502160.671000,0.577,-0.868,-1.161,55.6,-166.54,-67.14
502160.718000,0.433,-0.89,-1.373,75.08,-166.39,-105.59
502160.765000,0.507,-0.834,-1.489,85.33,-186.04,-174.72
502160.812000,0.428,-0.386,-1.643,77.94,-142.19,-196.66
502160.859000,0.37,-0.578,-1.56,126.35,-86.21,-97.93
502160.906000,0.396,-0.582,-1.619,66.26,-84.2,-145.02
502160.968000,0.342,-0.745,-1.581,76.94,-4.85,-181.71
502161.015000,0.16,-0.542,-1.571,39.95,27.95,-177.5
502161.062000,0.411,-0.443,-1.752,79.65,75.14,-178.44
502161.109000,0.523,-0.293,-1.521,34.46,95.28,-155.8
502161.156000,0.465,-0.268,-1.629,44.34,163.82,-110.72
502161.203000,0.571,-0.284,-1.532,13.7,146.34,-115.94
502161.250000,0.375,-0.099,-1.114,-1.53,187.51,-74.92
502161.296000,0.497,-0.12,-1.118,-18.83,146.46,-34.73
502161.343000,0.323,-0.062,-0.791,-29.94,181.28,-30.18
502161.390000,0.267,-0.016,-0.69,-71.99,145.21,-42.76
502161.437000,0.302,-0.038,-0.332,-74.65,134.59,-25.7
502161.484000,0.306,-0.048,-0.266,-87.98,127.93,-28.9
502161.531000,0.33,0.033,-0.128,-103.27,112.98,-41.69
502161.578000,0.408,-0.011,0.149,-96.41,100.04,-11.23
502161.625000,0.495,0.026,0.176,-112.92,91.28,-16.85
502161.671000,0.481,-0.07,0.309,-130.74,70.44,-12.27
502161.718000,0.523,-0.247,0.376,-144.99,50.08,-1.59
502161.765000,0.549,-0.407,0.5,-138.1,19.93,8.24
502161.812000,0.684,-0.581,0.346,-123.48,-9.25,14.65
502161.875000,0.858,-0.715,0.316,-77.61,-16.17,18.95
502161.921000,0.943,-0.807,0.337,-51.64,-6.56,20.26
502161.968000,1.094,-0.715,0.218,-22.64,-11.11,-2.84
502162.015000,0.996,-0.604,0.277,6.01,1.56,1.07
502162.062000,0.972,-0.454,0.228,2.35,-0.18,-26.98
502162.109000,0.9,-0.352,0.315,12.76,0.49,-16.91
502162.156000,0.925,-0.29,0.288,3.63,-1.31,-28.23
502162.203000,0.891,-0.18,0.311,11.72,-4.64,-16.11
502162.250000,0.952,-0.19,0.222,6.13,-14.77,-12.79
502162.296000,0.918,-0.147,0.245,14.47,-0.98,2.29
502162.343000,0.937,-0.203,0.212,5.43,-12.33,1.01
502162.390000,0.925,-0.155,0.212,5.4,-1.77,-11.96
502162.437000,0.941,-0.159,0.201,5.95,-11.66,-0.06
502162.484000,0.942,-0.138,0.166,1.13,-6.74,-4.73
502162.531000,0.931,-0.163,0.213,7.39,-7.9,9.31
502162.578000,0.976,-0.205,0.152,6.53,-8.27,7.08
502162.625000,0.945,-0.173,0.188,-1.98,-4.64,-4.21
502162.671000,0.968,-0.198,0.156,1.37,-7.66,2.93
502162.734000,0.972,-0.198,0.178,-0.82,-0.73,-3.75
502162.781000,0.956,-0.235,0.169,4.52,-3.78,4.58
502162.828000,0.969,-0.221,0.161,-1.5,-0.76,-9.7
502162.875000,0.939,-0.2,0.185,6.01,0.24,-4.06
502162.921000,0.981,-0.176,0.167,-1.28,1.1,-13.46
502162.968000,0.95,-0.136,0.197,1.19,1.59,-4.52
502163.015000,0.962,-0.185,0.168,2.84,-2.81,2.81
502163.062000,0.956,-0.18,0.189,-2.29,1.16,-7.17
502163.109000,0.955,-0.144,0.177,1.62,-2.01,-4.82
502163.156000,0.955,-0.148,0.183,-0.21,1.31,-2.14
502163.203000,0.941,-0.153,0.199,-0.12,-0.37,0.52
502163.250000,0.959,-0.167,0.174,-2.47,-2.53,-0.7
502163.296000,0.958,-0.171,0.2,-0.55,0.7,0.58
502163.343000,0.964,-0.185,0.191,-0.58,-0.43,1.8
502163.390000,0.97,-0.188,0.148,-0.76,-1.04,0.43
502163.437000,0.957,-0.193,0.188,2.41,1.43,1.22
502163.484000,0.945,-0.176,0.161,0.49,0.09,-3.17
502163.531000,0.942,-0.186,0.189,0.89,0.0,-0.79
502163.578000,0.953,-0.179,0.161,2.96,-0.06,-3.08
502163.625000,0.961,-0.169,0.188,3.72,1.22,-5.8
502163.671000,0.968,-0.143,0.164,2.04,-2.01,-3.33
502163.718000,0.968,-0.14,0.179,-0.09,0.09,-5.58
502163.765000,0.957,-0.133,0.177,1.65,-1.98,0.0
502163.812000,0.962,-0.153,0.187,0.49,0.89,-0.15
502163.859000,0.941,-0.146,0.192,0.12,-2.01,-0.73
502163.906000,0.949,-0.146,0.173,-0.03,-0.52,-0.49
502163.953000,0.955,-0.143,0.179,-1.43,-2.04,-2.93
502164.000000,0.951,-0.139,0.167,-1.22,-1.74,-0.37
502164.046000,0.975,-0.153,0.166,-0.37,-1.86,0.09
502164.093000,0.962,-0.147,0.159,-1.74,-1.77,0.58
502164.140000,0.976,-0.174,0.16,-0.55,-0.37,0.15
502164.187000,0.965,-0.162,0.169,-0.09,1.28,-1.74
502164.234000,0.984,-0.157,0.136,1.53,1.04,-1.01
502164.281000,0.961,-0.157,0.193,2.23,1.74,-1.37
502164.343000,0.957,-0.145,0.172,4.03,3.17,-1.28
502164.390000,0.956,-0.136,0.178,1.28,1.34,-4.0
502164.437000,0.952,-0.127,0.182,1.8,-0.09,-1.16
502164.484000,0.96,-0.117,0.173,-0.31,0.73,-4.18
502164.531000,0.958,-0.126,0.187,1.65,-2.2,1.4
502164.578000,0.967,-0.124,0.156,-0.06,0.24,-1.68
502164.625000,0.969,-0.127,0.183,-0.79,-1.16,-1.01
502164.671000,0.994,-0.129,0.151,-1.59,1.19,-1.22
502164.718000,0.964,-0.129,0.17,1.22,2.14,2.84
502164.765000,0.969,-0.141,0.161,0.09,2.84,0.15
502164.812000,0.945,-0.134,0.203,0.4,2.59,0.0
502164.859000,0.939,-0.133,0.182,0.95,1.83,0.12
502164.906000,0.931,-0.13,0.197,0.92,0.21,-0.46
502164.953000,0.948,-0.129,0.203,0.03,-0.79,-0.31
502165.000000,0.967,-0.113,0.175,-1.53,-1.98,-2.84
502165.062000,0.977,-0.125,0.165,1.86,-1.65,5.58
502165.109000,0.98,-0.152,0.162,0.15,0.12,1.43
502165.156000,0.966,-0.145,0.167,0.0,-0.24,-1.37
502165.203000,0.973,-0.147,0.168,-1.71,0.73,-3.2
502165.250000,0.964,-0.152,0.175,2.17,0.58,-0.21
502165.296000,0.972,-0.169,0.17,1.04,0.98,-2.47
502165.343000,0.956,-0.151,0.206,2.59,-0.4,-3.36
502165.390000,0.973,-0.162,0.178,4.12,0.64,-4.21
502165.437000,0.981,-0.18,0.194,5.49,-1.53,-2.59
502165.484000,0.982,-0.174,0.161,8.15,0.58,-11.26
502165.531000,0.977,-0.097,0.17,10.77,5.92,-15.5
502165.578000,0.956,-0.021,0.18,9.28,2.96,-8.73
502165.625000,0.963,0.012,0.181,6.74,4.97,-7.08
502165.671000,0.98,0.068,0.168,-1.71,0.7,-4.94
502165.718000,1.04,0.113,0.081,-9.25,2.08,-1.19
502165.765000,1.092,0.162,0.074,-19.59,2.72,-0.73
502165.812000,1.128,0.271,-0.045,-37.08,1.98,-6.68
502165.859000,0.899,0.304,0.038,-51.85,16.72,-6.71
502165.906000,0.68,0.335,0.206,-44.31,12.67,10.47
502165.968000,0.488,0.255,0.243,-108.65,-8.61,-10.07
502166.015000,0.384,0.104,0.161,-136.72,-37.45,-6.13
502166.062000,0.35,0.024,0.028,-109.41,-61.77,3.02
502166.109000,0.285,-0.181,-0.005,-99.98,-83.65,43.95
502166.156000,0.258,-0.467,-0.217,-52.46,-102.54,69.12
502166.203000,0.264,-0.773,-0.162,-55.97,-139.68,34.49
502166.265000,0.5,-0.928,-0.324,-36.5,-107.64,-1.56
502166.312000,0.642,-1.115,-0.647,26.64,-183.75,20.02
502166.359000,0.681,-1.031,-0.623,16.24,-193.3,-58.35
502166.406000,0.767,-1.217,-0.825,77.3,-188.15,-10.65
502166.453000,0.385,-0.845,-0.988,65.8,-195.59,-104.04
502166.500000,0.439,-0.85,-1.186,107.61,-190.13,-51.21
502166.546000,0.376,-0.752,-1.155,102.88,-197.88,-89.18
502166.593000,0.491,-0.79,-1.538,82.74,-203.83,-104.43
502166.640000,0.324,-0.797,-1.602,79.59,-158.7,-128.45
502166.687000,0.254,-0.665,-1.796,43.28,-134.07,-209.08
502166.734000,0.294,-0.756,-1.944,45.47,-101.47,-218.76
502166.796000,0.206,-0.445,-1.839,45.9,34.36,-246.1
502166.843000,0.41,-0.099,-2.009,48.65,78.22,-218.05
502166.890000,0.525,-0.069,-1.783,23.77,135.99,-176.46
502166.937000,0.445,-0.002,-1.559,4.43,183.42,-115.88
502166.984000,0.453,0.009,-1.59,-40.01,201.33,-89.69
502167.031000,0.38,0.006,-0.969,-7.84,183.2,-16.3
502167.078000,0.308,-0.033,-0.909,-51.06,194.37,-3.08
502167.125000,0.136,0.117,-0.542,-78.49,159.92,-24.23
502167.171000,0.249,0.002,-0.412,-76.33,160.92,14.8
502167.234000,0.267,0.012,-0.248,-104.04,125.83,-7.54
502167.281000,0.399,-0.105,-0.038,-141.27,99.19,-20.33
502167.328000,0.557,-0.072,-0.105,-150.09,84.48,-25.3
502167.375000,0.579,-0.199,0.125,-172.67,85.48,-43.43
502167.421000,0.682,-0.172,0.263,-146.89,65.43,-8.39
502167.468000,0.572,-0.323,0.37,-123.51,32.11,10.59
502167.515000,0.754,-0.464,0.205,-109.74,6.07,30.37
502167.562000,0.682,-0.687,0.364,-91.53,13.03,19.32
502167.609000,0.889,-0.648,0.214,-81.73,-17.15,-8.24
502167.656000,0.896,-0.615,0.31,-47.55,4.55,-13.09
502167.703000,0.932,-0.463,0.249,-32.26,-3.54,-22.16
502167.750000,0.961,-0.356,0.264,-17.15,1.68,-14.01
502167.796000,0.931,-0.282,0.288,-7.9,-2.47,-9.86
502167.843000,0.98,-0.256,0.261,-11.47,-4.09,-12.18
502167.890000,0.95,-0.218,0.24,-5.01,-1.53,-10.41
502167.937000,0.935,-0.229,0.228,1.34,-4.15,-1.43
502167.984000,0.933,-0.231,0.22,3.2,1.22,-4.58
502168.031000,0.912,-0.195,0.237,4.33,-1.25,-2.38
502168.078000,0.956,-0.189,0.217,4.39,-9.0,-10.01
502168.125000,0.96,-0.128,0.233,3.81,2.08,-1.62
502168.171000,0.971,-0.18,0.191,10.07,-8.76,9.37
502168.218000,0.96,-0.194,0.18,3.2,-2.87,3.91
502168.265000,0.923,-0.195,0.213,8.64,-5.46,2.84
502168.312000,0.953,-0.161,0.161,4.88,-2.01,-2.84
502168.359000,0.923,-0.164,0.212,5.16,-4.73,3.14
502168.406000,0.979,-0.175,0.152,3.39,-9.25,1.22
502168.453000,0.931,-0.182,0.218,1.68,-2.66,-0.89
502168.500000,0.997,-0.175,0.134,-0.46,-9.52,-6.59
502168.546000,0.981,-0.171,0.16,0.06,-1.46,0.49
502168.593000,0.974,-0.192,0.15,3.02,-3.45,-1.68
502168.640000,0.965,-0.173,0.188,-2.5,1.71,-6.04
502168.687000,0.969,-0.169,0.141,0.98,0.49,-2.53
502168.734000,0.96,-0.179,0.161,-0.58,1.16,-2.75
502168.781000,0.939,-0.167,0.167,6.56,0.64,1.98
502168.828000,0.958,-0.158,0.181,-3.08,-0.24,-8.48
502168.875000,0.961,-0.139,0.158,4.03,0.34,0.12
502168.921000,0.937,-0.137,0.199,-2.26,3.33,-4.85
502168.968000,0.95,-0.131,0.166,0.7,-4.67,0.64
502169.015000,0.943,-0.153,0.181,-3.17,-3.88,-0.18
502169.062000,0.981,-0.165,0.142,-2.62,-6.56,-2.26
502169.109000,0.964,-0.14,0.164,0.31,0.03,-1.16
502169.156000,0.951,-0.133,0.171,-0.7,-3.85,1.04
502169.203000,0.928,-0.16,0.158,0.03,-5.19,8.24
502169.250000,0.961,-0.195,0.137,-5.52,-10.65,0.49
502169.312000,0.982,-0.167,0.147,0.76,-0.46,-4.06
502169.359000,0.962,-0.131,0.169,1.77,-1.28,-4.18
502169.406000,0.97,-0.121,0.133,-3.33,-5.25,0.18
502169.453000,1.01,-0.176,0.076,-2.93,-5.89,0.95
502169.500000,1.004,-0.147,0.139,0.61,5.98,-4.36
502169.546000,0.939,-0.131,0.184,4.94,2.41,2.23
502169.593000,0.96,-0.166,0.125,-4.46,-4.79,0.12
502169.640000,0.952,-0.175,0.117,4.21,0.43,3.08
502169.687000,0.955,-0.146,0.151,0.43,2.17,-7.29
502169.734000,0.964,-0.104,0.157,1.01,-0.4,-2.78
502169.781000,0.96,-0.141,0.157,4.12,-1.83,4.79
502169.828000,0.973,-0.142,0.133,-2.2,-0.12,-4.94
502169.875000,0.956,-0.137,0.157,0.7,-1.4,0.95
502169.921000,0.965,-0.144,0.124,-1.86,-2.9,-2.53
502169.968000,0.963,-0.12,0.128,0.82,1.37,-1.07
502170.015000,0.953,-0.145,0.151,-0.15,-4.46,1.62
502170.062000,0.97,-0.13,0.109,-1.01,-1.01,-1.4
502170.109000,0.959,-0.124,0.156,-1.04,-4.58,0.73
502170.156000,0.969,-0.128,0.116,-0.52,-3.33,1.22
502170.203000,0.974,-0.147,0.13,-1.13,-2.47,1.4
502170.250000,0.978,-0.14,0.094,-2.78,-2.26,-0.4
502170.296000,0.957,-0.148,0.137,-1.89,-1.5,1.62
502170.343000,1.008,-0.16,0.103,-3.02,-1.59,-3.88
502170.390000,0.967,-0.128,0.136,-0.98,3.85,-4.7
502170.437000,0.986,-0.136,0.129,1.1,-0.09,-2.35
502170.484000,0.952,-0.087,0.146,-1.34,5.31,-5.1
502170.531000,0.956,-0.124,0.14,2.26,-2.84,3.57
502170.578000,0.95,-0.109,0.088,-5.43,2.17,-4.7
502170.625000,0.958,-0.133,0.111,-1.8,-4.49,6.68
502170.671000,0.976,-0.148,0.11,-5.4,1.13,-0.58
502170.718000,1.007,-0.149,0.074,-3.6,-6.1,5.01
502170.765000,1.027,-0.181,0.085,1.19,5.92,4.12
502170.812000,0.978,-0.15,0.187,4.67,9.77,-2.84
502170.859000,0.973,-0.14,0.207,2.38,4.12,-1.89
502170.906000,0.895,-0.108,0.177,-0.21,-1.04,2.84
502170.953000,0.903,-0.155,0.083,2.11,-4.39,7.51
502171.000000,0.921,-0.154,0.084,1.56,-3.97,2.41
502171.046000,0.976,-0.12,0.102,0.12,-4.03,0.37
502171.093000,1.065,-0.15,0.044,-7.23,-9.03,-5.92
502171.140000,1.049,-0.149,0.089,-1.98,3.6,0.03
502171.187000,1.027,-0.194,0.086,3.69,4.39,3.08
502171.234000,0.939,-0.148,0.161,0.06,6.5,-6.35
502171.281000,0.944,-0.13,0.111,1.4,2.66,-0.95
502171.343000,0.934,-0.109,0.141,1.65,0.06,-1.89
502171.390000,0.938,-0.108,0.127,1.65,0.12,0.58
502171.437000,0.962,-0.133,0.141,-2.35,-4.36,-2.14
502171.484000,0.984,-0.127,0.108,0.49,-0.73,-1.34
502171.531000,0.976,-0.124,0.126,0.49,-1.71,-0.82
502171.578000,0.981,-0.126,0.111,-0.95,-0.79,-0.7
502171.625000,0.956,-0.138,0.137,1.16,-1.86,2.04
502171.671000,0.984,-0.126,0.107,-2.26,-0.4,-3.08
502171.718000,0.967,-0.125,0.138,0.61,0.06,1.37
502171.765000,0.971,-0.143,0.11,-0.24,-0.89,-1.1
502171.812000,0.974,-0.131,0.107,0.03,1.28,-2.14
502171.859000,0.966,-0.14,0.116,1.68,-0.12,-1.25
502171.906000,0.967,-0.105,0.125,1.13,3.45,-1.4
502171.953000,0.971,-0.12,0.135,1.83,1.28,-0.03
502172.000000,0.959,-0.105,0.128,-1.28,1.8,-2.59
502172.046000,0.965,-0.112,0.133,-0.27,-0.03,-2.38
502172.093000,0.97,-0.103,0.135,1.92,2.81,0.15
502172.140000,0.97,-0.093,0.109,-0.95,-1.22,-0.31
502172.187000,0.973,-0.106,0.137,1.62,2.2,1.71
502172.234000,0.966,-0.114,0.117,-1.8,-2.87,0.64
502172.281000,0.98,-0.119,0.12,-0.98,3.05,-0.67
502172.328000,0.987,-0.13,0.118,-0.82,-1.83,-0.52
502172.375000,0.969,-0.124,0.12,-2.44,1.16,-3.3
502172.421000,0.967,-0.159,0.123,1.8,0.46,-1.04
502172.468000,0.96,-0.13,0.141,1.8,3.14,-5.22
502172.515000,0.959,-0.076,0.118,0.18,-2.2,-6.41
502172.562000,1.001,-0.039,0.071,-1.34,0.0,-5.98
502172.609000,1.054,0.043,0.037,-4.18,0.7,-2.38
502172.656000,1.146,0.248,-0.0,-19.65,11.26,-20.05
502172.703000,1.169,0.391,-0.01,-26.03,12.39,13.12
502172.750000,0.991,0.35,0.035,-50.81,31.1,18.68
502172.796000,0.787,0.25,0.112,-52.67,33.88,24.84
502172.843000,0.616,0.083,0.094,-80.63,19.44,-7.29
502172.890000,0.525,0.061,0.094,-82.58,8.0,-23.96
502172.937000,0.459,-0.039,0.169,-105.26,-13.95,-47.64
502172.984000,0.407,-0.057,-0.059,-84.29,-52.92,-30.34
502173.031000,0.402,-0.313,0.059,-54.66,-71.9,13.98
502173.093000,0.591,-0.289,-0.081,-59.63,-93.87,-6.71
502173.140000,0.584,-0.532,-0.133,-29.02,-119.88,43.92
502173.187000,0.51,-0.519,-0.19,-41.29,-128.39,-7.14
502173.234000,0.649,-0.606,-0.505,-0.73,-156.9,9.58
502173.281000,0.391,-0.812,-0.377,18.86,-168.16,-6.81
502173.328000,0.503,-0.789,-0.722,27.65,-180.33,-71.23
502173.375000,0.571,-0.698,-0.944,58.38,-184.39,-58.08
502173.421000,0.34,-0.781,-0.992,75.38,-182.62,-93.69
502173.468000,0.644,-0.942,-1.471,118.08,-208.01,-94.18
502173.515000,0.557,-0.637,-1.738,133.03,-181.68,-175.18
502173.562000,0.688,-0.678,-2.044,153.17,-138.65,-148.93
502173.609000,0.568,-0.363,-1.963,133.34,-75.05,-218.27
502173.656000,0.441,-0.415,-1.808,122.9,-15.59,-171.42
502173.703000,0.168,-0.58,-1.687,101.23,9.25,-190.56
502173.750000,0.238,-0.228,-1.697,56.7,30.34,-241.74
502173.796000,0.488,0.156,-1.59,57.22,100.34,-178.75
502173.843000,0.675,-0.107,-1.196,62.84,105.59,-44.31
502173.890000,0.699,-0.049,-1.735,12.15,127.35,-91.8
502173.937000,0.573,0.043,-1.127,2.66,151.34,-61.07
502173.984000,0.578,0.018,-1.138,-31.98,151.01,-42.12
502174.031000,0.552,-0.062,-0.728,-2.44,150.21,16.14
502174.078000,0.644,-0.089,-0.765,-65.28,163.15,-33.72
502174.125000,0.456,-0.053,-0.407,-95.34,137.33,-56.67
502174.171000,0.576,-0.07,-0.474,-117.31,140.81,-26.43
502174.218000,0.456,-0.096,-0.289,-125.83,119.17,-23.47
502174.265000,0.484,-0.081,-0.281,-125.31,108.95,-17.49
502174.312000,0.434,-0.127,-0.068,-122.81,96.26,-15.84
502174.359000,0.51,-0.094,-0.04,-135.11,81.33,-41.05
502174.406000,0.558,-0.009,0.174,-124.52,73.12,-31.95
502174.453000,0.534,0.006,0.169,-128.51,50.36,-5.8
502174.500000,0.724,-0.062,0.192,-135.84,34.58,5.95
502174.546000,0.62,-0.496,0.341,-117.56,28.93,67.35
502174.593000,0.734,-0.899,0.242,-111.73,19.81,55.76
502174.640000,0.74,-1.026,0.386,-58.41,11.51,34.85
502174.703000,0.771,-0.862,0.452,-33.05,14.86,-0.46
502174.750000,0.868,-0.681,0.425,-16.66,-6.87,-2.99
502174.796000,0.837,-0.484,0.392,-8.27,-1.68,-16.17
502174.843000,0.904,-0.43,0.403,-8.3,-9.55,-12.02
502174.890000,0.876,-0.363,0.346,5.95,2.11,0.95
502174.937000,0.829,-0.341,0.338,2.32,-5.8,-8.39
502174.984000,0.874,-0.331,0.313,-0.18,-10.71,-3.17
502175.031000,0.868,-0.345,0.267,5.43,-6.04,3.63
502175.078000,0.904,-0.338,0.322,2.41,-8.91,-5.07
502175.125000,0.887,-0.327,0.298,5.68,-4.94,2.5
502175.171000,0.918,-0.37,0.257,7.02,-10.28,4.85
502175.218000,0.889,-0.313,0.287,2.11,-0.82,-2.9
502175.265000,0.87,-0.377,0.313,8.94,-8.91,16.72
502175.312000,0.938,-0.397,0.258,-1.31,-6.65,0.52
502175.359000,0.917,-0.313,0.246,3.54,-7.6,-11.47
502175.406000,0.957,-0.26,0.203,1.04,-1.31,-14.83
502175.453000,0.938,-0.229,0.245,-3.27,-1.22,-11.38
502175.500000,0.927,-0.267,0.232,2.32,-1.01,3.72
502175.546000,0.911,-0.31,0.247,-6.47,-0.61,-6.1
502175.593000,0.906,-0.305,0.249,0.61,1.16,-2.14
502175.640000,0.93,-0.289,0.247,-6.5,1.53,-11.93
502175.687000,0.888,-0.267,0.286,-3.72,2.87,-2.96
502175.734000,0.888,-0.301,0.265,-6.2,-1.16,-0.64
502175.781000,0.901,-0.302,0.267,-4.61,-2.5,-1.43
502175.828000,0.897,-0.3,0.263,-2.08,-1.56,-3.36
502175.875000,0.912,-0.291,0.277,-5.1,0.67,-5.43
502175.921000,0.92,-0.298,0.244,-2.04,-1.62,3.14
502175.968000,0.92,-0.333,0.248,-2.35,-1.98,1.07
502176.015000,0.911,-0.312,0.268,0.46,1.13,-2.87
502176.062000,0.921,-0.298,0.241,-2.01,-2.38,-6.35
502176.109000,0.91,-0.294,0.256,2.53,2.29,-1.86
502176.156000,0.9,-0.302,0.25,0.82,-2.47,-3.45
502176.203000,0.921,-0.282,0.248,0.61,-0.12,-7.32
502176.250000,0.901,-0.269,0.253,2.41,-1.07,-3.05
502176.296000,0.934,-0.254,0.254,-4.18,-3.42,-10.01
502176.343000,0.923,-0.285,0.263,0.18,0.82,-2.81
502176.390000,0.912,-0.29,0.249,-3.42,-4.52,-5.77
502176.437000,0.924,-0.275,0.252,3.02,-1.83,-4.64
502176.484000,0.926,-0.257,0.23,0.03,-4.39,-6.35
502176.531000,0.93,-0.238,0.22,2.47,-0.49,-4.15
502176.578000,0.948,-0.255,0.218,2.84,-3.08,-1.4
502176.625000,0.939,-0.301,0.24,4.3,-1.68,1.74
502176.671000,0.959,-0.352,0.247,7.69,-10.35,2.08
502176.718000,0.998,-0.347,0.192,2.08,-5.77,-8.85
502176.765000,0.971,-0.309,0.206,14.1,4.06,-11.11
502176.812000,0.954,-0.27,0.216,16.27,1.59,-9.19
502176.859000,0.949,-0.236,0.231,12.97,4.24,-15.72
502176.906000,0.933,-0.26,0.248,22.28,3.11,-7.2
502176.953000,0.94,-0.196,0.209,11.17,-1.77,-26.7
502177.000000,0.925,-0.125,0.251,20.23,5.49,-17.0
502177.046000,0.957,-0.081,0.211,9.83,-2.62,-20.97
502177.093000,1.009,-0.056,0.198,5.89,-1.19,-19.1
502177.140000,1.086,-0.001,0.145,5.58,9.03,-16.14
502177.187000,1.072,0.175,0.132,-11.69,14.28,-24.02
502177.234000,1.045,0.188,0.176,-13.76,16.17,-4.97
502177.281000,0.811,0.507,0.172,-61.71,24.84,-53.93
502177.328000,0.551,0.648,0.307,-83.71,4.79,-56.67
502177.375000,0.319,0.656,0.247,-120.61,-43.55,-46.21
502177.421000,0.243,0.385,0.234,-152.87,-79.53,-15.66
502177.468000,0.311,-0.023,-0.106,-130.41,-87.13,55.94
502177.515000,0.186,-0.167,-0.089,-144.41,-100.65,29.54
502177.562000,0.232,-0.508,-0.316,-156.9,-127.9,55.27
502177.609000,0.329,-0.665,-0.404,-136.75,-111.12,-33.81
502177.656000,0.298,-0.685,-0.644,-95.58,-176.4,-40.8
502177.703000,0.333,-0.751,-1.01,-40.41,-171.73,-81.94
502177.750000,0.699,-0.905,-1.065,4.58,-206.79,-127.02
502177.796000,0.675,-0.613,-1.552,81.51,-190.98,-175.73
502177.843000,0.615,-0.426,-1.218,119.3,-153.78,-178.11
502177.890000,0.635,-0.106,-1.682,129.58,-189.28,-167.52
502177.937000,0.407,-0.028,-1.633,133.55,-133.34,-148.99
502177.984000,0.514,-0.15,-2.153,133.27,-94.85,-135.44
502178.031000,0.297,-0.156,-1.768,113.41,-52.4,-125.83
502178.078000,0.278,-0.083,-2.019,96.22,-35.16,-168.22
502178.125000,0.073,-0.089,-1.736,44.59,-2.38,-187.99
502178.171000,0.183,0.284,-1.902,58.72,83.93,-220.56
502178.218000,0.335,0.156,-1.666,69.73,102.73,-106.2
502178.265000,0.406,0.189,-1.663,49.68,144.44,-102.27
502178.312000,0.417,0.154,-1.436,46.3,159.95,-51.76
502178.359000,0.359,0.204,-1.294,18.07,162.72,-18.83
502178.406000,0.538,0.05,-1.362,9.34,160.71,-18.89
502178.468000,0.524,0.051,-0.927,-24.17,164.68,-33.08
502178.515000,0.421,0.131,-0.853,-31.92,190.04,-17.82
502178.562000,0.499,0.082,-0.716,-61.8,148.26,-18.13
502178.609000,0.405,0.08,-0.484,-75.17,182.35,-29.63
502178.656000,0.358,0.093,-0.319,-91.95,148.56,-18.59
502178.703000,0.341,0.012,-0.027,-108.49,125.1,-27.89
502178.750000,0.434,-0.04,0.066,-118.84,87.44,-29.66
502178.796000,0.526,-0.035,0.148,-131.87,68.91,-35.34
502178.843000,0.666,-0.028,0.109,-134.43,39.55,-20.2
502178.890000,0.776,-0.256,0.095,-115.05,24.48,22.46
502178.937000,0.786,-0.406,0.225,-113.44,19.38,24.84
502178.984000,0.835,-0.719,0.103,-89.79,7.02,53.38
502179.031000,0.787,-0.856,0.277,-49.13,23.9,30.34
502179.078000,0.789,-0.729,0.344,-25.54,11.11,9.19
502179.125000,0.901,-0.613,0.334,-16.05,9.06,-20.17
502179.171000,0.814,-0.399,0.421,-0.4,15.05,-9.8
502179.218000,0.946,-0.352,0.344,9.52,-0.55,-11.57
502179.265000,0.881,-0.201,0.403,5.8,6.87,-8.82
502179.312000,0.919,-0.237,0.361,15.66,-7.97,9.28
502179.359000,0.88,-0.172,0.36,1.62,2.93,-10.65
502179.406000,0.903,-0.183,0.325,8.94,-6.04,5.07
502179.453000,0.886,-0.183,0.334,0.49,-3.88,-4.27
502179.500000,0.896,-0.186,0.33,8.09,-9.95,4.73
502179.546000,0.914,-0.175,0.297,-1.37,-11.02,1.74
502179.593000,0.943,-0.191,0.265,1.4,-11.57,2.75
502179.640000,0.95,-0.164,0.257,1.92,-2.99,-3.11
502179.687000,0.922,-0.209,0.272,5.25,-8.45,9.64
502179.734000,0.945,-0.238,0.266,4.76,-5.74,3.27
502179.781000,0.94,-0.178,0.253,-2.35,-2.26,-8.42
502179.828000,0.948,-0.216,0.274,5.16,-1.74,1.53
502179.875000,0.927,-0.161,0.287,0.64,1.43,-5.4
502179.921000,0.933,-0.184,0.291,2.35,-2.99,3.36
502179.968000,0.935,-0.219,0.267,-2.59,-0.92,-2.78
502180.015000,0.934,-0.204,0.24,0.79,-4.58,-3.08
502180.062000,0.958,-0.187,0.235,-0.46,1.53,-9.8
502180.109000,0.926,-0.167,0.274,5.19,0.27,-1.95
502180.156000,0.966,-0.165,0.231,1.25,-4.03,-2.01
502180.203000,0.934,-0.154,0.267,2.32,-0.03,-2.66
502180.250000,0.95,-0.152,0.24,0.4,-3.2,-2.75
502180.296000,0.935,-0.156,0.269,-0.7,-0.4,-2.78
502180.343000,0.927,-0.165,0.256,2.53,-0.61,2.56
502180.390000,0.933,-0.178,0.254,-2.5,-3.02,-5.1
502180.437000,0.936,-0.157,0.259,4.15,-0.43,1.01
502180.484000,0.951,-0.185,0.247,3.08,-2.72,3.48
502180.531000,0.939,-0.161,0.252,0.82,0.58,-3.17
502180.578000,0.949,-0.169,0.256,2.62,-2.93,0.37
502180.625000,0.956,-0.171,0.239,1.01,1.34,-1.71
502180.671000,0.935,-0.167,0.247,4.18,-1.28,0.95
502180.718000,0.939,-0.167,0.262,1.65,1.53,-4.33
502180.765000,0.935,-0.155,0.257,4.03,-2.26,-1.25
502180.812000,0.944,-0.15,0.255,0.85,0.49,-6.04
502180.859000,0.944,-0.146,0.265,2.26,-2.32,-2.69
502180.906000,0.957,-0.15,0.236,0.82,-0.92,-4.43
502180.968000,0.939,-0.127,0.272,3.66,-1.43,-2.93
502181.015000,0.969,-0.121,0.235,-2.04,-3.69,-5.89
502181.062000,0.949,-0.126,0.248,1.98,-3.2,0.98
502181.109000,0.943,-0.12,0.256,-2.2,1.31,-5.74
502181.156000,0.961,-0.106,0.233,1.01,-5.16,-1.25
502181.203000,0.965,-0.101,0.228,-4.18,1.13,-3.45
502181.250000,0.97,-0.108,0.224,-1.25,-2.11,3.66
502181.312000,0.969,-0.092,0.215,-7.2,3.05,-4.46
502181.359000,0.954,-0.112,0.243,-0.15,1.83,6.62
502181.406000,0.967,-0.135,0.194,-7.23,4.55,-3.14
502181.453000,0.963,-0.118,0.253,-5.65,1.86,-1.37
502181.500000,0.928,-0.179,0.219,-2.84,4.52,3.08
502181.546000,0.9,-0.232,0.262,-3.17,1.74,-7.57
502181.593000,0.929,-0.19,0.29,5.89,3.17,-6.44
502181.640000,0.936,-0.132,0.275,5.28,1.46,-5.1
502181.687000,0.971,-0.124,0.255,7.14,-1.86,0.34
502181.734000,0.959,-0.096,0.262,3.51,2.17,-1.62
502181.781000,0.961,-0.103,0.231,6.71,3.27,1.71
502181.828000,0.925,-0.091,0.258,0.92,0.61,-4.39
502181.875000,0.944,-0.092,0.263,3.02,1.43,-0.37
502181.921000,0.931,-0.1,0.258,0.89,-2.08,-0.82
502181.968000,0.943,-0.105,0.276,-0.98,-0.27,-2.69
502182.015000,0.919,-0.119,0.269,1.43,-3.14,3.02
502182.062000,0.948,-0.137,0.245,1.07,-7.08,-1.04
502182.109000,0.947,-0.1,0.25,4.94,-2.69,-0.52
502182.156000,0.97,-0.108,0.253,1.65,-4.33,-2.87
502182.218000,0.967,-0.099,0.225,4.88,-2.69,1.98
502182.265000,0.954,-0.101,0.232,3.17,-2.14,-1.37
502182.312000,0.962,-0.101,0.243,3.6,-1.07,-0.34
