t_monotonic,ax,ay,az,gx,gy,gz
327698.078000,-0.571,-0.724,-0.142,19.56,44.07,7.05
327698.078000,-0.568,-0.742,-0.144,16.97,43.46,7.72
327698.078000,-0.559,-0.772,-0.155,14.83,42.02,8.97
327698.093000,-0.556,-0.798,-0.187,13.03,41.29,9.83
327698.109000,-0.557,-0.819,-0.209,12.24,42.21,10.8
327698.125000,-0.561,-0.837,-0.205,12.24,43.95,11.87
327698.125000,-0.57,-0.831,-0.195,12.02,44.47,13.03
327698.140000,-0.584,-0.823,-0.182,11.14,43.09,14.34
327698.156000,-0.598,-0.811,-0.18,10.22,39.89,15.35
327698.156000,-0.603,-0.793,-0.182,8.12,35.8,17.37
327698.171000,-0.609,-0.787,-0.189,6.26,32.32,19.65
327698.187000,-0.61,-0.794,-0.209,4.88,30.03,20.63
327698.187000,-0.614,-0.817,-0.199,1.04,28.84,19.26
327698.203000,-0.631,-0.838,-0.196,-2.11,28.32,15.35
327698.203000,-0.635,-0.824,-0.186,-2.93,29.24,11.47
327698.218000,-0.639,-0.811,-0.179,-2.11,30.03,8.45
327698.234000,-0.645,-0.8,-0.156,-1.59,30.3,6.62
327698.234000,-0.644,-0.782,-0.14,-0.92,28.9,5.43
327698.250000,-0.645,-0.756,-0.145,-0.95,26.61,5.43
327698.265000,-0.646,-0.754,-0.135,-1.71,24.2,6.62
327698.265000,-0.636,-0.76,-0.121,-0.7,21.06,7.63
327698.281000,-0.618,-0.789,-0.127,3.17,18.65,8.3
327698.281000,-0.6,-0.797,-0.148,7.45,17.82,7.78
327698.296000,-0.58,-0.784,-0.158,9.7,18.59,6.2
327698.312000,-0.568,-0.773,-0.162,9.55,19.59,4.36
327698.328000,-0.571,-0.766,-0.157,7.02,20.02,2.96
327698.328000,-0.569,-0.762,-0.142,3.72,19.65,2.47
327698.343000,-0.567,-0.764,-0.132,1.65,18.68,2.69
327698.343000,-0.569,-0.775,-0.13,1.4,17.58,3.39
327698.359000,-0.564,-0.796,-0.124,2.81,16.42,3.36
327698.375000,-0.56,-0.807,-0.125,5.34,15.81,1.77
327698.375000,-0.569,-0.796,-0.136,8.51,16.33,-0.09
327698.390000,-0.577,-0.785,-0.144,10.65,17.7,-1.56
327698.406000,-0.577,-0.778,-0.147,11.44,19.14,-2.01
327698.406000,-0.584,-0.779,-0.147,11.84,20.29,-1.8
327698.421000,-0.597,-0.78,-0.144,10.16,20.33,-0.58
327698.421000,-0.602,-0.787,-0.134,7.9,19.41,0.82
327698.437000,-0.606,-0.808,-0.125,7.45,18.49,2.32
327698.453000,-0.613,-0.826,-0.122,7.6,16.82,3.36
327698.468000,-0.616,-0.837,-0.125,7.45,14.4,3.63
327698.468000,-0.605,-0.842,-0.127,7.54,12.48,3.42
327698.484000,-0.589,-0.842,-0.134,7.97,10.96,2.93
327698.484000,-0.573,-0.836,-0.141,8.76,10.19,2.38
327698.500000,-0.556,-0.828,-0.137,8.39,10.1,1.71
327698.515000,-0.548,-0.82,-0.123,6.93,9.58,0.64
327698.515000,-0.55,-0.817,-0.105,4.7,8.21,-0.61
327698.531000,-0.562,-0.817,-0.096,3.23,6.84,-1.19
327698.531000,-0.564,-0.825,-0.099,3.57,5.4,-1.28
327698.546000,-0.555,-0.824,-0.104,3.08,3.72,-1.19
327698.562000,-0.549,-0.82,-0.104,2.26,2.93,-1.31
327698.578000,-0.55,-0.822,-0.103,2.2,3.02,-1.1
327698.578000,-0.551,-0.822,-0.101,2.44,3.02,-0.46
327698.593000,-0.545,-0.814,-0.101,2.78,2.78,-0.24
327698.593000,-0.549,-0.805,-0.107,2.78,2.26,-0.03
327698.609000,-0.551,-0.803,-0.118,3.57,1.46,0.61
327698.625000,-0.551,-0.807,-0.127,5.25,1.13,1.13
327698.625000,-0.555,-0.803,-0.14,6.71,1.04,1.74
327698.640000,-0.559,-0.797,-0.153,8.03,1.13,2.5
327698.640000,-0.567,-0.796,-0.168,8.7,1.46,3.17
327698.656000,-0.575,-0.804,-0.174,9.06,2.35,4.12
327698.671000,-0.581,-0.814,-0.174,9.49,3.3,4.73
327698.687000,-0.584,-0.82,-0.171,10.07,4.03,4.85
327698.687000,-0.583,-0.816,-0.169,9.98,4.36,4.64
327698.687000,-0.581,-0.816,-0.172,10.13,4.88,4.67
327698.718000,-0.575,-0.817,-0.171,9.95,5.86,4.46
327698.718000,-0.573,-0.818,-0.167,9.52,7.17,3.72
327698.734000,-0.574,-0.817,-0.157,9.31,8.45,2.96
327698.750000,-0.569,-0.811,-0.152,8.15,8.91,2.41
327698.750000,-0.564,-0.811,-0.148,6.41,9.03,1.71
327698.765000,-0.561,-0.812,-0.141,4.55,9.31,1.04
327698.765000,-0.563,-0.817,-0.131,2.93,9.4,0.31
327698.781000,-0.568,-0.82,-0.12,1.98,9.16,-0.06
327698.796000,-0.572,-0.821,-0.112,1.62,8.27,-0.09
327698.796000,-0.567,-0.822,-0.105,1.37,7.14,0.24
327698.812000,-0.566,-0.818,-0.1,1.71,5.49,0.73
327698.812000,-0.567,-0.815,-0.104,2.29,4.27,1.37
327698.828000,-0.554,-0.814,-0.1,2.11,3.42,2.47
327698.843000,-0.547,-0.816,-0.099,1.68,2.59,3.36
327698.843000,-0.547,-0.814,-0.105,2.08,2.32,3.94
327698.859000,-0.548,-0.817,-0.111,2.78,2.35,4.82
327698.875000,-0.556,-0.819,-0.119,2.9,1.92,5.49
327698.875000,-0.555,-0.822,-0.124,2.41,1.8,5.89
327698.890000,-0.554,-0.821,-0.124,1.68,1.22,6.13
327698.906000,-0.556,-0.82,-0.13,1.34,0.79,6.26
327698.921000,-0.553,-0.823,-0.136,1.19,0.49,6.5
327698.921000,-0.55,-0.829,-0.132,1.86,0.37,6.68
327698.937000,-0.545,-0.821,-0.129,1.59,-0.06,6.56
327698.937000,-0.552,-0.817,-0.132,0.7,-0.34,6.16
327698.953000,-0.555,-0.824,-0.128,0.46,-0.21,5.86
327698.968000,-0.56,-0.818,-0.12,0.4,0.03,5.71
327698.968000,-0.572,-0.816,-0.123,0.15,0.0,5.46
327698.984000,-0.571,-0.834,-0.115,-0.03,0.4,5.37
327698.984000,-0.561,-0.832,-0.105,0.18,0.67,4.88
327699.000000,-0.568,-0.822,-0.108,0.34,0.67,3.85
327699.000000,-0.576,-0.818,-0.115,0.52,0.46,3.3
327699.015000,-0.574,-0.817,-0.113,0.58,0.12,3.51
327699.031000,-0.571,-0.822,-0.114,1.43,-0.27,3.36
327699.046000,-0.575,-0.821,-0.125,2.2,-0.73,3.05
327699.046000,-0.577,-0.816,-0.131,1.98,-1.1,2.96
327699.062000,-0.575,-0.816,-0.132,1.65,-1.53,3.17
327699.062000,-0.579,-0.809,-0.137,1.5,-1.95,3.54
327699.078000,-0.576,-0.806,-0.138,1.34,-2.14,4.12
327699.093000,-0.569,-0.804,-0.138,1.37,-2.08,4.3
327699.093000,-0.563,-0.801,-0.137,1.28,-1.4,3.94
327699.109000,-0.571,-0.792,-0.136,0.92,-0.31,3.63
327699.125000,-0.581,-0.793,-0.133,0.55,-0.06,3.88
327699.125000,-0.588,-0.797,-0.122,0.82,-0.58,4.82
327699.140000,-0.59,-0.8,-0.12,0.82,-1.43,5.74
327699.156000,-0.593,-0.804,-0.124,0.64,-2.9,6.59
327699.156000,-0.593,-0.808,-0.13,0.27,-3.81,7.75
327699.171000,-0.589,-0.818,-0.136,0.15,-4.3,8.51
327699.171000,-0.591,-0.819,-0.147,-0.55,-4.79,8.64
327699.187000,-0.588,-0.819,-0.152,-1.62,-4.12,8.48
327699.203000,-0.583,-0.822,-0.152,-2.29,-2.9,7.81
327699.203000,-0.58,-0.818,-0.147,-3.45,-2.14,6.56
327699.218000,-0.584,-0.809,-0.141,-4.64,-1.77,5.34
327699.234000,-0.583,-0.805,-0.13,-5.4,-1.34,4.67
327699.234000,-0.586,-0.806,-0.119,-3.63,-1.1,3.85
327699.250000,-0.592,-0.804,-0.121,-2.96,-1.74,3.78
327699.265000,-0.592,-0.803,-0.122,-2.78,-2.38,3.66
327699.265000,-0.584,-0.809,-0.122,-2.35,-2.62,2.93
327699.281000,-0.584,-0.81,-0.132,-2.2,-2.75,2.53
327699.281000,-0.583,-0.807,-0.137,-2.26,-2.62,2.23
327699.296000,-0.585,-0.821,-0.138,-1.92,-2.59,1.8
327699.312000,-0.583,-0.824,-0.137,-1.31,-2.59,1.28
327699.328000,-0.584,-0.817,-0.137,-1.04,-3.66,0.61
327699.328000,-0.584,-0.814,-0.135,-1.31,-3.27,-0.12
327699.328000,-0.586,-0.814,-0.135,-1.8,-2.44,-0.55
327699.343000,-0.589,-0.812,-0.126,-2.26,-2.44,-1.07
327699.359000,-0.596,-0.807,-0.129,-2.17,-3.69,-1.25
327699.359000,-0.594,-0.806,-0.123,-1.71,-3.97,-0.73
327699.375000,-0.599,-0.806,-0.125,-0.73,-3.88,0.18
327699.390000,-0.59,-0.807,-0.125,-0.06,-3.33,0.4
327699.390000,-0.59,-0.804,-0.136,-0.09,-3.45,-0.18
327699.406000,-0.594,-0.798,-0.137,-1.19,-3.27,-0.7
327699.421000,-0.591,-0.794,-0.136,-1.95,-3.17,-0.61
327699.437000,-0.59,-0.793,-0.142,-2.5,-3.08,-0.98
327699.437000,-0.583,-0.791,-0.14,-3.42,-2.47,-1.07
327699.453000,-0.584,-0.796,-0.131,-3.57,-2.2,-1.28
327699.453000,-0.59,-0.8,-0.131,-3.78,-2.2,-1.68
327699.468000,-0.593,-0.797,-0.125,-2.78,-2.2,-2.2
327699.484000,-0.592,-0.794,-0.126,-0.67,-2.04,-2.5
327699.500000,-0.588,-0.786,-0.135,0.34,-2.5,-2.26
327699.500000,-0.587,-0.785,-0.135,0.15,-2.5,-1.86
327699.515000,-0.587,-0.788,-0.133,0.21,-2.59,-1.59
327699.515000,-0.589,-0.786,-0.139,0.55,-2.99,-1.01
327699.531000,-0.586,-0.788,-0.138,0.4,-2.87,-0.37
327699.531000,-0.588,-0.796,-0.14,0.98,-2.14,0.31
327699.546000,-0.594,-0.8,-0.141,1.89,-1.4,0.55
327699.562000,-0.591,-0.8,-0.137,1.83,-0.85,0.43
327699.562000,-0.594,-0.794,-0.138,1.56,-0.79,0.37
327699.578000,-0.595,-0.795,-0.133,1.19,-0.7,0.52
327699.578000,-0.592,-0.797,-0.128,1.65,-0.76,0.34
327699.593000,-0.596,-0.792,-0.135,2.41,-1.34,0.43
327699.609000,-0.596,-0.788,-0.138,2.2,-1.68,0.61
327699.609000,-0.6,-0.798,-0.137,2.5,-2.62,0.79
327699.625000,-0.612,-0.813,-0.126,3.75,-5.04,1.77
327699.625000,-0.6,-0.807,-0.123,5.71,-7.69,3.02
327699.656000,-0.589,-0.8,-0.138,6.13,-8.88,3.27
327699.671000,-0.579,-0.799,-0.139,4.15,-8.24,2.29
327699.671000,-0.588,-0.794,-0.136,1.89,-6.62,1.28
327699.687000,-0.586,-0.79,-0.125,0.7,-4.58,1.1
327699.687000,-0.59,-0.799,-0.123,0.0,-2.35,1.13
327699.703000,-0.597,-0.805,-0.117,-0.76,-2.78,0.92
327699.703000,-0.589,-0.808,-0.102,-0.7,-2.87,1.13
327699.718000,-0.595,-0.809,-0.106,0.64,-1.74,0.7
327699.734000,-0.602,-0.803,-0.111,1.65,-1.83,0.61
327699.734000,-0.598,-0.8,-0.112,2.9,-2.69,1.13
327699.750000,-0.593,-0.796,-0.125,3.36,-3.57,1.46
327699.765000,-0.583,-0.79,-0.13,1.68,-3.27,1.31
327699.765000,-0.588,-0.795,-0.131,-0.61,-1.34,0.7
327699.781000,-0.591,-0.797,-0.125,-1.77,-0.27,0.21
327699.796000,-0.594,-0.798,-0.122,-1.43,0.64,0.37
327699.796000,-0.592,-0.796,-0.124,-0.98,0.92,0.52
327699.812000,-0.591,-0.792,-0.126,-0.79,0.92,0.82
327699.812000,-0.592,-0.791,-0.125,-0.79,0.89,1.16
327699.828000,-0.599,-0.8,-0.122,-0.73,0.73,1.4
327699.843000,-0.608,-0.805,-0.12,-0.34,0.52,1.53
327699.843000,-0.612,-0.803,-0.12,0.09,0.09,1.56
327699.859000,-0.61,-0.798,-0.121,0.52,-0.24,1.86
327699.875000,-0.605,-0.798,-0.127,0.73,-0.49,2.11
327699.875000,-0.604,-0.796,-0.128,0.37,-0.46,2.01
327699.875000,-0.6,-0.793,-0.126,0.06,-0.15,1.92
327699.890000,-0.6,-0.793,-0.125,0.49,0.24,2.04
327699.906000,-0.605,-0.793,-0.128,0.82,0.49,1.92
327699.921000,-0.599,-0.789,-0.126,0.73,0.82,2.01
327699.937000,-0.604,-0.788,-0.125,0.4,1.34,2.26
327699.937000,-0.609,-0.796,-0.119,-0.03,1.68,2.32
327699.953000,-0.605,-0.797,-0.11,0.15,1.74,2.44
327699.968000,-0.605,-0.792,-0.112,1.01,1.34,2.41
327699.968000,-0.599,-0.789,-0.113,1.89,1.22,2.66
327699.984000,-0.6,-0.79,-0.114,2.59,1.5,2.87
327699.984000,-0.607,-0.79,-0.119,3.14,1.71,2.99
327700.000000,-0.606,-0.794,-0.117,3.17,2.38,3.14
327700.015000,-0.6,-0.797,-0.115,3.2,2.53,2.93
327700.015000,-0.606,-0.796,-0.12,3.36,2.59,2.47
327700.031000,-0.603,-0.794,-0.121,3.23,2.59,2.56
327700.031000,-0.599,-0.797,-0.124,3.08,2.38,2.78
327700.046000,-0.599,-0.797,-0.126,3.17,2.32,2.81
327700.062000,-0.596,-0.797,-0.126,2.99,2.38,2.56
327700.062000,-0.6,-0.799,-0.125,2.69,2.35,2.23
327700.078000,-0.603,-0.8,-0.129,2.38,2.32,2.26
327700.093000,-0.596,-0.809,-0.122,2.53,3.02,1.92
327700.093000,-0.601,-0.81,-0.112,3.05,3.27,0.58
327700.109000,-0.605,-0.796,-0.113,3.78,3.3,0.0
327700.125000,-0.602,-0.788,-0.112,3.51,3.54,0.06
327700.140000,-0.6,-0.789,-0.104,2.72,3.57,-0.12
327700.140000,-0.602,-0.789,-0.102,2.87,3.17,-0.34
327700.156000,-0.601,-0.792,-0.105,3.08,2.96,-0.49
327700.156000,-0.602,-0.792,-0.106,2.9,2.62,-0.27
327700.171000,-0.602,-0.794,-0.106,2.81,2.38,-0.18
327700.171000,-0.602,-0.798,-0.109,2.75,2.23,-0.06
327700.187000,-0.601,-0.799,-0.11,2.62,2.32,0.0
327700.203000,-0.601,-0.799,-0.11,2.5,2.23,-0.06
327700.203000,-0.602,-0.793,-0.109,2.53,1.92,0.09
327700.218000,-0.602,-0.794,-0.108,2.72,1.77,0.18
327700.218000,-0.605,-0.79,-0.109,2.72,1.53,0.4
327700.234000,-0.602,-0.787,-0.11,2.32,1.19,0.85
327700.250000,-0.6,-0.792,-0.107,1.89,1.07,1.16
327700.250000,-0.599,-0.795,-0.104,1.74,0.98,0.92
327700.265000,-0.597,-0.792,-0.104,1.86,0.61,0.64
327700.265000,-0.604,-0.791,-0.108,1.92,0.24,0.52
327700.281000,-0.605,-0.793,-0.109,1.68,0.06,0.79
327700.296000,-0.603,-0.796,-0.107,1.43,-0.21,0.85
327700.312000,-0.602,-0.799,-0.104,1.25,-0.7,0.73
327700.312000,-0.605,-0.801,-0.105,1.22,-1.1,0.73
327700.328000,-0.605,-0.799,-0.107,1.28,-1.4,0.73
327700.343000,-0.601,-0.799,-0.108,1.28,-1.77,0.95
327700.343000,-0.602,-0.799,-0.108,1.13,-1.8,0.79
327700.359000,-0.607,-0.797,-0.11,0.92,-1.74,0.76
327700.375000,-0.605,-0.793,-0.107,0.52,-1.92,0.95
327700.375000,-0.605,-0.792,-0.106,0.18,-2.11,1.07
327700.390000,-0.607,-0.792,-0.105,-0.06,-2.41,1.07
327700.406000,-0.607,-0.795,-0.105,-0.12,-2.87,1.19
327700.406000,-0.604,-0.797,-0.103,0.24,-3.27,1.25
327700.421000,-0.602,-0.796,-0.105,0.64,-3.57,1.01
327700.421000,-0.597,-0.796,-0.109,0.76,-3.63,0.79
327700.437000,-0.593,-0.791,-0.107,0.61,-3.63,0.55
327700.453000,-0.596,-0.789,-0.109,0.21,-3.42,0.24
327700.453000,-0.598,-0.791,-0.104,0.03,-3.02,0.12
327700.468000,-0.6,-0.795,-0.102,-0.18,-2.93,0.0
327700.484000,-0.602,-0.798,-0.1,-0.24,-2.99,-0.18
327700.484000,-0.602,-0.799,-0.098,0.0,-3.14,-0.34
327700.500000,-0.603,-0.798,-0.097,0.18,-3.33,-0.34
327700.515000,-0.604,-0.799,-0.1,0.15,-3.54,-0.27
327700.515000,-0.604,-0.801,-0.102,0.09,-3.81,-0.21
327700.531000,-0.599,-0.803,-0.099,-0.12,-3.94,-0.18
327700.531000,-0.597,-0.801,-0.099,-0.27,-4.0,-0.61
327700.546000,-0.599,-0.796,-0.099,-0.34,-4.06,-0.98
327700.546000,-0.599,-0.79,-0.101,-0.52,-4.36,-0.89
327700.562000,-0.605,-0.792,-0.101,-0.67,-4.58,-0.58
327700.578000,-0.606,-0.794,-0.101,-0.92,-4.85,-0.31
327700.578000,-0.611,-0.797,-0.1,-1.01,-5.28,-0.18
327700.609000,-0.611,-0.799,-0.1,-1.37,-5.58,-0.09
327700.609000,-0.608,-0.797,-0.1,-1.65,-5.86,-0.03
327700.625000,-0.607,-0.793,-0.101,-1.77,-6.07,0.03
327700.625000,-0.611,-0.792,-0.104,-2.08,-6.35,0.09
327700.640000,-0.609,-0.791,-0.103,-2.66,-6.47,0.24
327700.656000,-0.611,-0.789,-0.099,-3.05,-6.71,0.43
327700.671000,-0.611,-0.793,-0.098,-3.45,-6.84,0.46
327700.671000,-0.605,-0.793,-0.101,-3.42,-6.87,0.21
327700.687000,-0.606,-0.786,-0.102,-3.36,-7.17,-0.09
327700.687000,-0.606,-0.783,-0.105,-3.45,-7.35,0.18
327700.703000,-0.609,-0.783,-0.107,-3.51,-7.35,0.61
327700.703000,-0.607,-0.788,-0.104,-3.39,-7.42,0.92
327700.718000,-0.608,-0.79,-0.109,-3.17,-7.45,1.07
327700.734000,-0.61,-0.787,-0.116,-3.11,-7.35,1.19
327700.734000,-0.612,-0.791,-0.117,-3.17,-7.17,1.62
327700.750000,-0.611,-0.797,-0.117,-3.23,-6.93,1.59
327700.765000,-0.612,-0.796,-0.114,-3.08,-6.96,1.65
327700.781000,-0.614,-0.795,-0.112,-2.84,-7.08,1.74
327700.781000,-0.609,-0.798,-0.109,-2.44,-7.29,1.71
327700.796000,-0.614,-0.8,-0.106,-2.11,-7.48,1.59
327700.796000,-0.61,-0.8,-0.104,-1.68,-7.66,1.4
327700.812000,-0.61,-0.799,-0.104,-1.5,-7.69,1.04
327700.828000,-0.61,-0.802,-0.102,-1.89,-7.57,0.58
327700.828000,-0.604,-0.806,-0.098,-1.95,-6.53,-0.55
327700.828000,-0.607,-0.806,-0.095,-1.92,-6.2,-1.07
327700.859000,-0.615,-0.802,-0.095,-2.11,-5.68,-1.07
327700.859000,-0.612,-0.804,-0.092,-2.23,-5.58,-1.4
327700.875000,-0.613,-0.807,-0.089,-2.11,-5.55,-1.68
327700.875000,-0.615,-0.805,-0.09,-2.14,-5.34,-1.65
327700.890000,-0.611,-0.802,-0.096,-2.78,-5.34,-1.71
327700.906000,-0.608,-0.805,-0.096,-3.45,-5.04,-1.77
327700.906000,-0.606,-0.806,-0.094,-4.21,-4.91,-1.95
327700.921000,-0.606,-0.805,-0.096,-4.76,-5.01,-2.32
327700.921000,-0.602,-0.804,-0.1,-5.04,-5.13,-2.38
327700.937000,-0.601,-0.801,-0.099,-5.68,-5.34,-2.5
327700.953000,-0.601,-0.798,-0.1,-6.1,-5.52,-2.62
327700.953000,-0.604,-0.797,-0.101,-6.35,-5.58,-2.5
327700.968000,-0.608,-0.796,-0.099,-6.96,-5.49,-2.35
327700.968000,-0.608,-0.795,-0.095,-7.57,-5.31,-2.47
327700.984000,-0.606,-0.795,-0.091,-7.84,-5.25,-2.66
327701.000000,-0.606,-0.794,-0.087,-7.69,-5.52,-2.75
327701.015000,-0.615,-0.788,-0.086,-7.45,-6.04,-2.56
327701.015000,-0.623,-0.789,-0.091,-7.11,-6.29,-1.86
327701.031000,-0.612,-0.794,-0.084,-6.84,-6.41,-1.4
327701.046000,-0.608,-0.791,-0.085,-6.41,-7.05,-1.68
327701.046000,-0.61,-0.781,-0.099,-5.95,-7.26,-1.71
327701.062000,-0.605,-0.778,-0.1,-6.04,-7.11,-1.53
327701.062000,-0.604,-0.779,-0.098,-6.56,-7.05,-1.53
327701.078000,-0.606,-0.78,-0.099,-6.74,-6.74,-1.34
327701.093000,-0.606,-0.785,-0.093,-6.74,-6.59,-1.31
327701.093000,-0.605,-0.788,-0.089,-6.38,-6.84,-1.31
327701.109000,-0.608,-0.785,-0.093,-5.68,-7.05,-1.13
327701.109000,-0.607,-0.783,-0.098,-5.07,-7.08,-0.52
327701.125000,-0.607,-0.783,-0.103,-4.55,-7.17,0.4
327701.125000,-0.61,-0.784,-0.106,-4.88,-7.14,1.13
327701.140000,-0.611,-0.786,-0.109,-5.22,-7.11,1.8
327701.156000,-0.612,-0.786,-0.111,-5.89,-7.02,2.47
327701.156000,-0.611,-0.789,-0.109,-6.68,-6.78,3.02
327701.171000,-0.612,-0.793,-0.108,-7.45,-6.41,3.14
327701.171000,-0.614,-0.791,-0.108,-8.42,-6.41,3.11
327701.203000,-0.612,-0.794,-0.104,-8.15,-6.32,3.39
327701.203000,-0.607,-0.794,-0.103,-7.66,-6.1,3.39
327701.218000,-0.608,-0.789,-0.105,-7.29,-5.77,3.23
327701.234000,-0.614,-0.79,-0.107,-6.84,-5.4,2.87
327701.250000,-0.616,-0.787,-0.107,-6.59,-4.97,2.53
327701.250000,-0.617,-0.784,-0.107,-6.53,-4.58,2.53
327701.265000,-0.621,-0.784,-0.108,-6.32,-4.27,2.56
327701.265000,-0.617,-0.789,-0.11,-5.83,-3.85,2.47
327701.281000,-0.616,-0.788,-0.117,-5.28,-3.36,2.2
327701.296000,-0.617,-0.788,-0.121,-5.71,-2.41,1.77
327701.296000,-0.619,-0.789,-0.119,-6.32,-1.31,1.16
327701.312000,-0.613,-0.793,-0.108,-6.32,-0.52,0.46
327701.328000,-0.616,-0.792,-0.106,-5.46,-0.09,-0.52
327701.328000,-0.615,-0.786,-0.107,-4.43,0.18,-1.4
327701.343000,-0.613,-0.777,-0.109,-3.27,0.4,-1.95
327701.359000,-0.612,-0.773,-0.115,-1.59,0.67,-1.77
327701.359000,-0.606,-0.769,-0.122,-0.82,1.4,-1.4
327701.375000,-0.607,-0.77,-0.124,-1.13,1.86,-1.07
327701.375000,-0.611,-0.775,-0.123,-1.95,2.5,-0.98
327701.390000,-0.613,-0.782,-0.119,-2.11,3.02,-0.79
327701.406000,-0.619,-0.787,-0.119,-1.1,2.96,-0.73
327701.406000,-0.618,-0.783,-0.122,-0.12,2.62,-0.27
327701.406000,-0.616,-0.781,-0.121,0.52,2.2,0.24
327701.437000,-0.613,-0.779,-0.123,0.67,2.01,0.64
327701.437000,-0.611,-0.78,-0.121,0.79,2.01,0.89
327701.453000,-0.612,-0.781,-0.125,1.28,2.32,0.85
327701.453000,-0.611,-0.778,-0.13,1.56,2.99,0.92
327701.468000,-0.606,-0.779,-0.124,1.5,3.94,0.98
327701.468000,-0.608,-0.783,-0.125,1.71,4.85,0.7
327701.484000,-0.612,-0.782,-0.123,1.37,5.89,0.52
327701.500000,-0.618,-0.784,-0.116,2.01,6.56,0.61
327701.500000,-0.622,-0.789,-0.112,3.57,7.2,0.98
327701.515000,-0.622,-0.789,-0.112,4.03,7.39,1.04
327701.531000,-0.623,-0.793,-0.111,3.75,7.39,0.79
327701.531000,-0.624,-0.798,-0.112,4.24,7.42,0.31
327701.546000,-0.623,-0.795,-0.115,4.33,7.51,-0.18
327701.546000,-0.616,-0.793,-0.119,3.63,7.45,-0.98
327701.562000,-0.609,-0.796,-0.116,3.05,7.66,-1.86
327701.578000,-0.604,-0.794,-0.116,2.56,8.27,-2.66
327701.593000,-0.601,-0.792,-0.116,2.17,9.06,-3.66
327701.609000,-0.604,-0.786,-0.112,2.9,9.8,-3.63
327701.609000,-0.609,-0.784,-0.113,4.64,10.9,-2.84
327701.625000,-0.605,-0.787,-0.111,4.39,12.09,-2.44
327701.625000,-0.61,-0.793,-0.107,2.66,12.36,-2.66
327701.640000,-0.613,-0.796,-0.1,2.78,12.7,-2.84
327701.656000,-0.61,-0.799,-0.098,3.66,12.91,-2.96
327701.656000,-0.61,-0.8,-0.097,3.51,12.6,-3.97
327701.656000,-0.614,-0.79,-0.101,3.05,11.87,-4.94
327701.687000,-0.609,-0.774,-0.107,3.27,11.26,-4.88
327701.687000,-0.595,-0.769,-0.112,2.62,11.05,-4.55
327701.703000,-0.591,-0.769,-0.112,1.95,10.96,-4.18
327701.718000,-0.591,-0.77,-0.117,2.69,10.9,-3.6
327701.718000,-0.59,-0.769,-0.12,3.36,10.99,-2.81
327701.734000,-0.59,-0.766,-0.123,3.78,11.02,-1.65
327701.734000,-0.588,-0.769,-0.121,2.93,11.66,-1.13
327701.750000,-0.583,-0.776,-0.121,0.73,12.27,-1.89
327701.765000,-0.589,-0.783,-0.112,-2.47,12.85,-3.05
327701.765000,-0.606,-0.787,-0.1,-2.87,12.42,-3.33
327701.781000,-0.61,-0.794,-0.097,0.21,11.29,-2.01
327701.781000,-0.615,-0.804,-0.106,4.85,9.55,-0.27
327701.796000,-0.603,-0.795,-0.126,7.26,7.81,1.16
327701.812000,-0.597,-0.791,-0.141,6.81,6.71,1.86
327701.828000,-0.604,-0.798,-0.141,5.95,6.56,2.2
327701.828000,-0.603,-0.802,-0.133,6.53,6.38,3.3
327701.843000,-0.601,-0.801,-0.129,7.78,5.62,4.21
327701.843000,-0.604,-0.798,-0.128,8.88,4.88,4.49
327701.859000,-0.605,-0.796,-0.126,9.34,4.36,4.49
327701.875000,-0.611,-0.792,-0.12,9.25,3.75,4.18
327701.875000,-0.612,-0.795,-0.114,9.64,3.51,4.15
327701.890000,-0.604,-0.797,-0.111,10.59,3.66,4.24
327701.890000,-0.592,-0.805,-0.109,10.96,3.6,3.57
327701.906000,-0.589,-0.809,-0.106,11.14,3.08,1.77
327701.906000,-0.597,-0.794,-0.112,11.29,2.84,0.82
327701.937000,-0.598,-0.791,-0.117,12.15,2.78,1.31
327701.937000,-0.596,-0.803,-0.116,12.67,2.72,1.89
327701.953000,-0.595,-0.809,-0.117,12.73,2.75,1.65
327701.968000,-0.599,-0.806,-0.115,12.79,3.02,1.46
327701.968000,-0.6,-0.803,-0.113,12.21,2.93,1.5
327701.984000,-0.601,-0.807,-0.11,11.47,2.87,1.68
327702.000000,-0.598,-0.805,-0.107,10.65,2.9,1.65
327702.000000,-0.595,-0.801,-0.103,9.34,3.14,1.59
327702.015000,-0.592,-0.804,-0.099,8.51,3.57,1.46
327702.015000,-0.592,-0.809,-0.1,8.42,4.09,1.28
327702.031000,-0.588,-0.81,-0.094,7.97,4.73,0.85
327702.031000,-0.589,-0.808,-0.092,7.2,4.64,0.67
327702.046000,-0.593,-0.804,-0.09,6.59,4.55,0.67
327702.062000,-0.595,-0.808,-0.084,6.65,4.24,0.67
327702.062000,-0.601,-0.811,-0.079,6.26,3.39,0.61
327702.078000,-0.605,-0.804,-0.078,5.62,2.26,0.61
327702.093000,-0.6,-0.803,-0.078,5.31,1.37,0.85
327702.093000,-0.596,-0.806,-0.08,4.79,0.89,0.82
327702.109000,-0.589,-0.807,-0.082,4.24,0.52,0.37
327702.109000,-0.586,-0.807,-0.083,3.81,0.43,-0.21
327702.125000,-0.584,-0.804,-0.086,3.3,0.34,-0.64
327702.140000,-0.586,-0.806,-0.082,2.44,-0.03,-1.22
327702.156000,-0.589,-0.806,-0.081,1.5,-0.55,-1.62
327702.156000,-0.595,-0.805,-0.084,1.74,-1.43,-1.65
327702.171000,-0.603,-0.808,-0.104,2.47,-3.08,-0.92
327702.187000,-0.616,-0.81,-0.123,0.92,-5.4,1.01
327702.187000,-0.624,-0.815,-0.133,-0.85,-7.63,3.39
327702.187000,-0.631,-0.819,-0.126,-1.71,-9.09,5.55
327702.203000,-0.645,-0.81,-0.102,-2.9,-9.64,6.65
327702.218000,-0.65,-0.809,-0.062,-1.92,-8.88,7.26
327702.218000,-0.64,-0.812,-0.055,2.53,-7.87,7.9
327702.234000,-0.617,-0.804,-0.071,6.96,-5.95,8.12
327702.250000,-0.597,-0.799,-0.088,9.58,-3.36,7.02
327702.250000,-0.595,-0.799,-0.1,9.37,-1.04,5.31
327702.250000,-0.592,-0.808,-0.093,8.36,0.7,2.5
327702.265000,-0.591,-0.803,-0.092,7.6,2.41,-0.21
327702.296000,-0.596,-0.799,-0.094,6.16,3.48,-3.05
327702.296000,-0.586,-0.796,-0.102,5.52,4.12,-5.19
327702.312000,-0.578,-0.798,-0.113,5.07,4.58,-6.81
327702.328000,-0.579,-0.805,-0.118,4.18,4.58,-8.55
327702.328000,-0.574,-0.803,-0.119,3.63,4.36,-9.77
327702.343000,-0.574,-0.803,-0.113,3.69,4.52,-10.62
327702.359000,-0.575,-0.8,-0.099,4.12,4.82,-11.29
327702.359000,-0.579,-0.796,-0.086,4.58,5.13,-11.99
327702.375000,-0.577,-0.795,-0.064,4.91,5.83,-12.88
327702.390000,-0.578,-0.788,-0.034,5.98,6.32,-14.16
327702.390000,-0.584,-0.778,-0.023,8.21,6.29,-15.14
327702.406000,-0.591,-0.764,-0.022,10.68,5.1,-15.32
327702.406000,-0.591,-0.754,-0.015,12.27,2.87,-14.28
327702.421000,-0.594,-0.753,-0.017,17.03,-4.0,-10.86
327702.421000,-0.597,-0.756,-0.023,19.44,-8.0,-8.42
327702.437000,-0.592,-0.753,-0.029,21.55,-11.6,-5.95
327702.453000,-0.581,-0.754,-0.036,24.11,-14.68,-3.36
327702.468000,-0.573,-0.755,-0.04,25.73,-16.3,-1.13
327702.484000,-0.57,-0.755,-0.043,26.83,-16.51,0.09
327702.484000,-0.569,-0.772,-0.05,26.46,-15.69,0.37
327702.484000,-0.574,-0.775,-0.043,25.15,-14.68,-0.21
327702.500000,-0.586,-0.777,-0.04,23.96,-13.64,-0.58
327702.515000,-0.591,-0.782,-0.035,22.71,-12.91,-0.09
327702.515000,-0.594,-0.789,-0.034,21.55,-12.76,0.73
327702.531000,-0.604,-0.8,-0.039,20.51,-13.09,2.2
327702.546000,-0.605,-0.815,-0.047,19.04,-13.89,3.66
327702.562000,-0.605,-0.829,-0.058,17.55,-14.68,4.73
327702.562000,-0.607,-0.839,-0.068,15.63,-15.17,5.43
327702.562000,-0.613,-0.845,-0.076,13.7,-15.17,6.01
327702.562000,-0.617,-0.852,-0.078,11.57,-14.37,6.53
327702.593000,-0.615,-0.856,-0.071,9.58,-13.18,6.56
327702.609000,-0.606,-0.855,-0.062,7.23,-11.96,6.07
327702.609000,-0.598,-0.849,-0.056,4.52,-10.8,5.16
327702.625000,-0.593,-0.846,-0.045,2.69,-9.0,4.09
327702.625000,-0.589,-0.842,-0.033,1.83,-6.9,2.93
327702.640000,-0.586,-0.837,-0.024,1.68,-4.61,1.92
327702.640000,-0.585,-0.829,-0.013,1.8,-2.26,0.92
327702.656000,-0.598,-0.818,-0.004,1.98,-0.37,0.49
327702.671000,-0.608,-0.825,0.003,1.95,1.04,0.55
327702.687000,-0.61,-0.837,0.01,2.23,1.95,0.79
327702.687000,-0.608,-0.841,0.013,3.45,2.35,1.01
327702.703000,-0.603,-0.843,0.006,4.88,2.44,1.07
327702.703000,-0.594,-0.842,0.001,5.83,2.75,0.95
327702.718000,-0.588,-0.843,-0.001,6.68,3.3,0.52
327702.734000,-0.585,-0.84,-0.003,6.81,3.97,0.0
327702.734000,-0.586,-0.833,0.001,6.99,4.7,-0.46
327702.750000,-0.584,-0.831,0.002,6.81,5.22,-0.85
327702.765000,-0.589,-0.829,0.009,6.41,5.49,-1.37
327702.765000,-0.597,-0.829,0.014,6.32,5.55,-1.4
327702.781000,-0.598,-0.823,0.019,5.77,5.4,-0.98
327702.781000,-0.602,-0.82,0.019,4.79,5.1,-0.15
327702.796000,-0.599,-0.828,0.026,3.54,5.13,0.76
327702.812000,-0.603,-0.836,0.034,2.72,5.04,0.89
327702.828000,-0.607,-0.833,0.032,2.5,4.73,0.46
327702.828000,-0.604,-0.83,0.029,1.71,4.79,0.27
327702.843000,-0.599,-0.831,0.026,0.46,4.46,-0.24
327702.843000,-0.597,-0.83,0.021,-1.1,3.69,-1.07
327702.859000,-0.599,-0.824,0.005,-2.93,2.9,-1.98
327702.875000,-0.597,-0.824,-0.004,-4.52,2.23,-2.26
327702.875000,-0.594,-0.833,-0.004,-5.49,1.5,-2.08
327702.890000,-0.592,-0.829,-0.004,-5.83,0.92,-1.86
327702.906000,-0.592,-0.819,-0.008,-6.04,0.34,-1.37
327702.906000,-0.579,-0.814,-0.012,-6.47,0.27,-0.76
327702.921000,-0.581,-0.822,-0.011,-7.81,0.24,-1.01
327702.937000,-0.598,-0.82,-0.005,-8.21,-1.4,-0.92
327702.937000,-0.595,-0.8,-0.002,-6.59,-3.36,1.68
327702.937000,-0.578,-0.793,-0.011,-6.2,-4.73,4.06
327702.953000,-0.567,-0.794,-0.013,-8.88,-4.06,4.39
327702.968000,-0.575,-0.798,-0.005,-11.72,-2.47,3.51
327702.984000,-0.585,-0.792,0.002,-12.45,-1.01,2.96
327702.984000,-0.59,-0.785,-0.007,-11.14,-2.32,3.72
327703.000000,-0.58,-0.78,-0.006,-10.74,-3.85,5.34
327703.000000,-0.579,-0.778,-0.008,-11.11,-4.61,6.01
327703.015000,-0.578,-0.778,-0.0,-10.86,-3.72,6.23
327703.031000,-0.577,-0.773,0.0,-9.67,-2.69,6.78
327703.046000,-0.569,-0.765,-0.005,-8.91,-2.62,7.32
327703.046000,-0.562,-0.764,-0.013,-9.55,-1.4,7.39
327703.062000,-0.572,-0.767,-0.016,-11.84,-0.58,6.74
327703.062000,-0.583,-0.775,-0.008,-12.97,0.06,6.81
327703.078000,-0.592,-0.791,-0.006,-11.66,-0.09,7.75
327703.078000,-0.599,-0.806,-0.011,-9.98,-0.7,8.0
327703.093000,-0.603,-0.815,-0.01,-8.79,-1.95,6.71
327703.109000,-0.601,-0.831,-0.019,-6.84,-3.08,4.18
327703.125000,-0.591,-0.81,-0.034,-5.16,-3.02,2.87
327703.125000,-0.594,-0.769,-0.057,-5.13,-2.96,2.62
327703.140000,-0.598,-0.757,-0.059,-9.0,-2.72,3.27
327703.156000,-0.605,-0.77,-0.04,-12.48,-1.98,4.43
327703.156000,-0.618,-0.783,-0.021,-13.61,-1.62,6.2
327703.171000,-0.63,-0.792,-0.014,-12.45,-2.38,7.9
327703.187000,-0.633,-0.804,-0.02,-9.95,-3.33,9.25
327703.187000,-0.632,-0.808,-0.027,-8.61,-4.7,9.98
327703.203000,-0.633,-0.821,-0.034,-7.69,-6.26,9.64
327703.203000,-0.626,-0.822,-0.033,-7.05,-7.08,8.85
327703.218000,-0.629,-0.815,-0.042,-6.59,-7.26,7.84
327703.234000,-0.624,-0.815,-0.045,-6.74,-6.65,7.14
327703.234000,-0.62,-0.82,-0.037,-8.03,-6.26,5.74
327703.234000,-0.621,-0.818,-0.03,-9.52,-5.89,3.72
327703.250000,-0.631,-0.822,-0.031,-10.16,-5.58,2.11
327703.250000,-0.636,-0.826,-0.031,-10.1,-5.58,1.5
327703.281000,-0.627,-0.826,-0.03,-9.49,-5.46,1.31
327703.296000,-0.619,-0.827,-0.034,-8.51,-5.71,0.18
327703.312000,-0.612,-0.824,-0.041,-8.18,-6.29,-0.95
327703.312000,-0.607,-0.82,-0.048,-9.19,-7.57,-1.68
327703.312000,-0.606,-0.817,-0.052,-10.19,-8.67,-2.29
327703.328000,-0.611,-0.811,-0.083,-11.29,-9.46,-2.59
327703.328000,-0.606,-0.804,-0.107,-14.62,-9.55,-1.68
327703.359000,-0.589,-0.828,-0.069,-19.2,-7.35,-0.89
327703.359000,-0.591,-0.855,-0.041,-18.68,-4.85,-1.68
327703.375000,-0.597,-0.853,-0.025,-14.77,-4.46,-3.3
327703.375000,-0.597,-0.829,-0.017,-10.9,-5.95,-4.64
327703.390000,-0.599,-0.808,-0.021,-8.55,-7.87,-5.04
327703.406000,-0.602,-0.803,-0.019,-6.65,-9.49,-4.58
327703.406000,-0.6,-0.809,-0.016,-3.91,-10.38,-3.6
327703.421000,-0.608,-0.808,-0.033,-0.61,-10.5,-3.17
327703.437000,-0.631,-0.81,-0.049,1.31,-11.41,-2.14
327703.437000,-0.638,-0.823,-0.046,1.13,-12.76,-0.95
327703.453000,-0.63,-0.838,-0.031,1.28,-13.37,0.24
327703.468000,-0.627,-0.847,-0.036,3.91,-12.27,0.09
327703.468000,-0.613,-0.823,-0.066,5.19,-10.53,-0.4
327703.484000,-0.612,-0.785,-0.115,3.54,-7.45,-0.7
327703.500000,-0.609,-0.781,-0.107,-3.78,-4.12,0.73
327703.500000,-0.625,-0.813,-0.086,-9.98,-1.62,2.23
327703.515000,-0.648,-0.815,-0.114,-14.34,-0.73,3.3
327703.515000,-0.68,-0.761,-0.178,-23.01,-1.04,8.06
327703.531000,-0.672,-0.787,-0.125,-36.26,1.8,17.15
327703.531000,-0.638,-0.913,-0.004,-41.11,6.2,21.85
327703.562000,-0.629,-0.944,0.025,-32.32,8.42,15.96
327703.562000,-0.613,-0.854,-0.018,-18.68,10.71,7.78
327703.578000,-0.588,-0.751,-0.034,-11.41,12.94,3.66
327703.578000,-0.573,-0.716,-0.027,-10.19,12.21,1.53
327703.593000,-0.579,-0.716,-0.033,-8.42,9.74,-0.31
327703.609000,-0.587,-0.698,-0.034,-5.43,7.32,-0.52
327703.609000,-0.588,-0.664,-0.066,-0.27,3.81,1.74
327703.609000,-0.576,-0.663,-0.108,2.93,1.62,6.81
327703.625000,-0.597,-0.656,-0.197,-0.58,0.37,10.68
327703.640000,-0.636,-0.671,-0.218,-12.24,3.05,16.82
327703.656000,-0.684,-0.716,-0.136,-22.34,9.52,25.54
327703.656000,-0.699,-0.796,-0.059,-26.7,11.81,33.63
327703.671000,-0.754,-0.886,-0.032,-27.71,8.06,35.8
327703.687000,-0.768,-0.878,-0.023,-21.49,4.18,35.86
327703.687000,-0.739,-0.813,-0.029,-11.02,-0.89,37.63
327703.687000,-0.698,-0.704,-0.075,-3.11,-5.4,41.02
327703.703000,-0.623,-0.643,-0.083,-1.92,-8.24,44.5
327703.718000,-0.579,-0.623,-0.114,-2.23,-11.08,44.68
327703.718000,-0.577,-0.65,-0.152,-1.31,-10.5,42.21
327703.734000,-0.585,-0.648,-0.158,-2.84,-8.64,34.85
327703.750000,-0.604,-0.627,-0.135,-8.82,-7.87,27.59
327703.750000,-0.633,-0.625,-0.098,-14.28,-9.74,22.8
327703.765000,-0.639,-0.529,-0.119,-16.97,-11.96,23.96
327703.765000,-0.62,-0.606,-0.106,-22.83,-11.78,31.16
327703.781000,-0.686,-0.688,-0.097,-28.38,-9.83,30.37
327703.796000,-0.692,-0.656,-0.088,-25.57,-9.43,28.38
327703.796000,-0.676,-0.596,-0.084,-20.45,-9.37,30.24
327703.812000,-0.659,-0.568,-0.091,-18.25,-9.74,33.54
327703.828000,-0.652,-0.58,-0.055,-16.24,-9.61,37.14
327703.828000,-0.665,-0.613,-0.037,-10.68,-9.89,38.7
327703.843000,-0.693,-0.626,-0.053,-3.27,-11.05,38.3
327703.843000,-0.704,-0.651,-0.036,2.11,-12.67,37.17
327703.859000,-0.701,-0.666,0.0,7.81,-13.7,34.85
327703.875000,-0.751,-0.595,-0.046,15.29,-17.27,31.1
327703.875000,-0.787,-0.538,-0.119,20.08,-20.02,34.0
327703.906000,-0.77,-0.616,-0.128,20.14,-18.83,39.74
327703.906000,-0.79,-0.646,-0.146,16.72,-17.15,38.85
327703.921000,-0.828,-0.652,-0.15,12.6,-14.65,36.01
327703.937000,-0.853,-0.652,-0.146,9.22,-12.24,33.57
327703.937000,-0.848,-0.619,-0.162,5.37,-13.4,32.2
327703.953000,-0.83,-0.605,-0.172,-2.72,-12.48,31.31
327703.968000,-0.811,-0.635,-0.156,-13.12,-9.89,29.24
327703.968000,-0.824,-0.69,-0.115,-17.91,-6.07,24.32
327703.984000,-0.84,-0.704,-0.084,-16.66,-3.3,16.69
327703.984000,-0.854,-0.692,-0.044,-18.31,-3.17,8.06
327704.000000,-0.875,-0.686,0.005,-18.43,-4.61,0.12
327704.015000,-0.882,-0.684,0.022,-9.89,-16.63,-10.5
327704.015000,-0.868,-0.681,0.027,-4.06,-24.6,-14.98
327704.031000,-0.862,-0.683,0.005,1.83,-31.19,-18.49
327704.046000,-0.855,-0.674,-0.04,4.97,-35.0,-18.95
327704.046000,-0.858,-0.641,-0.094,5.89,-35.68,-16.85
327704.062000,-0.854,-0.721,-0.117,5.77,-34.36,-15.72
327704.078000,-0.866,-0.768,-0.117,4.7,-33.63,-19.01
327704.078000,-0.878,-0.796,-0.11,2.56,-33.54,-25.21
327704.093000,-0.87,-0.837,-0.094,1.89,-33.72,-31.07
327704.093000,-0.881,-0.814,-0.122,2.75,-34.88,-39.67
327704.109000,-0.907,-0.775,-0.169,0.09,-36.68,-47.24
327704.125000,-0.915,-0.723,-0.219,-3.17,-36.13,-46.14
327704.125000,-0.86,-0.71,-0.208,-9.06,-31.46,-40.5
327704.140000,-0.813,-0.777,-0.16,-14.01,-24.69,-37.51
327704.156000,-0.794,-0.823,-0.132,-14.37,-18.46,-41.41
327704.171000,-0.781,-0.823,-0.109,-13.98,-13.79,-49.96
327704.171000,-0.775,-0.823,-0.088,-12.24,-10.13,-59.88
327704.187000,-0.75,-0.846,-0.058,-7.42,-6.71,-70.71
327704.187000,-0.74,-0.858,-0.071,0.09,-4.12,-83.71
327704.203000,-0.78,-0.764,-0.171,2.41,-2.11,-94.88
327704.218000,-0.79,-0.643,-0.225,-2.04,3.33,-94.27
327704.218000,-0.748,-0.61,-0.187,-3.97,11.57,-83.53
327704.234000,-0.707,-0.641,-0.151,0.09,20.14,-70.5
327704.250000,-0.669,-0.694,-0.116,4.58,26.55,-62.38
327704.250000,-0.657,-0.719,-0.081,5.25,28.57,-61.92
327704.265000,-0.664,-0.704,-0.054,5.89,27.83,-63.48
327704.265000,-0.657,-0.682,-0.041,7.69,26.4,-63.08
327704.281000,-0.645,-0.661,-0.033,8.64,23.29,-60.4
327704.281000,-0.636,-0.658,-0.014,8.67,20.33,-56.03
327704.296000,-0.642,-0.671,-0.006,8.12,16.82,-50.97
327704.312000,-0.638,-0.674,-0.009,5.71,13.15,-45.05
327704.312000,-0.635,-0.673,-0.018,1.04,10.74,-38.18
327704.328000,-0.649,-0.688,-0.023,-4.82,9.8,-30.43
327704.343000,-0.655,-0.723,-0.012,-10.77,8.42,-22.74
327704.343000,-0.65,-0.805,0.01,-13.03,6.74,-16.91
327704.359000,-0.643,-0.891,-0.005,-9.0,5.8,-17.46
327704.375000,-0.623,-0.919,-0.038,-7.54,6.44,-24.96
327704.375000,-0.615,-0.89,-0.046,-11.99,7.26,-37.02
327704.390000,-0.611,-0.839,-0.037,-17.21,8.7,-48.59
327704.390000,-0.599,-0.785,-0.038,-20.75,8.58,-55.94
327704.406000,-0.587,-0.721,-0.045,-24.54,7.75,-58.38
327704.406000,-0.532,-0.649,-0.013,-30.82,6.56,-54.72
327704.421000,-0.465,-0.603,0.016,-32.23,3.02,-45.93
327704.437000,-0.429,-0.597,0.017,-28.57,-2.99,-36.87
327704.453000,-0.411,-0.618,0.021,-27.07,-11.11,-29.48
327704.468000,-0.4,-0.66,0.013,-23.53,-19.56,-23.26
327704.468000,-0.399,-0.704,-0.001,-17.18,-25.12,-17.98
327704.484000,-0.403,-0.738,-0.01,-9.43,-27.71,-13.55
327704.484000,-0.415,-0.774,-0.019,-1.59,-28.81,-10.41
327704.500000,-0.417,-0.787,-0.035,4.03,-28.87,-8.27
327704.515000,-0.417,-0.76,-0.065,6.04,-26.8,-5.46
327704.515000,-0.426,-0.769,-0.049,4.46,-21.49,-1.34
327704.531000,-0.431,-0.806,-0.004,3.23,-16.48,1.65
327704.531000,-0.458,-0.829,0.027,3.36,-12.45,4.21
327704.546000,-0.479,-0.847,0.042,3.05,-12.3,5.55
327704.562000,-0.497,-0.859,0.037,4.64,-14.13,7.35
327704.578000,-0.503,-0.863,0.028,6.01,-16.51,9.46
327704.578000,-0.486,-0.877,0.032,3.6,-19.96,10.01
327704.593000,-0.475,-0.89,0.032,-0.46,-23.56,9.0
327704.593000,-0.458,-0.887,0.025,-2.41,-25.76,7.57
327704.609000,-0.442,-0.892,0.025,-2.96,-27.44,6.68
327704.625000,-0.437,-0.9,0.032,-3.51,-28.53,5.31
327704.625000,-0.445,-0.904,0.037,-3.54,-28.66,3.39
327704.640000,-0.459,-0.91,0.03,-5.04,-30.0,1.74
327704.656000,-0.469,-0.926,0.024,-8.82,-33.23,0.4
327704.656000,-0.469,-0.96,0.027,-13.06,-36.84,-0.79
327704.671000,-0.481,-1.003,0.035,-14.95,-40.44,-2.66
327704.687000,-0.499,-1.032,0.038,-14.59,-43.12,-5.19
327704.687000,-0.501,-1.042,0.04,-13.0,-45.69,-7.9
327704.703000,-0.501,-1.039,0.037,-11.26,-48.1,-11.2
327704.703000,-0.512,-1.019,0.023,-10.65,-49.96,-14.37
327704.718000,-0.525,-0.987,0.004,-11.05,-51.09,-16.39
327704.734000,-0.515,-0.97,-0.007,-10.74,-51.42,-16.94
327704.750000,-0.504,-0.965,-0.015,-9.34,-49.81,-15.96
327704.750000,-0.493,-0.953,-0.029,-7.17,-46.78,-14.07
327704.765000,-0.48,-0.943,-0.038,-5.83,-44.4,-13.82
327704.765000,-0.471,-0.931,-0.031,-6.68,-42.88,-15.17
327704.781000,-0.462,-0.916,-0.022,-6.26,-41.35,-15.93
327704.796000,-0.442,-0.903,-0.018,-4.43,-40.53,-16.63
327704.796000,-0.429,-0.894,-0.017,-1.59,-39.52,-17.12
327704.812000,-0.425,-0.883,-0.022,2.23,-38.09,-17.64
327704.828000,-0.427,-0.869,-0.031,5.22,-36.96,-17.73
327704.828000,-0.431,-0.862,-0.038,7.66,-35.1,-17.33
327704.843000,-0.424,-0.854,-0.045,8.61,-32.78,-16.72
327704.843000,-0.416,-0.841,-0.049,7.42,-30.98,-16.24
327704.859000,-0.409,-0.825,-0.045,4.94,-28.05,-14.98
327704.875000,-0.393,-0.811,-0.032,2.59,-25.3,-13.21
327704.875000,-0.386,-0.803,-0.024,0.52,-22.52,-11.47
327704.890000,-0.389,-0.794,-0.017,-1.77,-20.75,-9.61
327704.906000,-0.396,-0.787,-0.01,-3.6,-18.37,-7.2
327704.906000,-0.405,-0.786,0.001,-4.33,-16.33,-3.94
327704.921000,-0.409,-0.789,0.008,-3.94,-14.83,0.18
327704.921000,-0.408,-0.796,0.014,-2.41,-13.55,4.18
327704.937000,-0.408,-0.807,0.018,-0.34,-12.54,6.96
327704.953000,-0.413,-0.815,0.022,2.01,-11.63,8.67
327704.968000,-0.42,-0.814,0.025,5.31,-10.22,10.41
327704.968000,-0.427,-0.805,0.024,9.77,-8.61,12.05
327704.984000,-0.424,-0.797,0.023,14.13,-6.56,14.13
327704.984000,-0.417,-0.796,0.021,18.13,-4.94,16.39
327705.000000,-0.412,-0.798,0.019,21.42,-3.88,18.8
327705.000000,-0.402,-0.796,0.023,24.26,-3.42,21.39
327705.015000,-0.39,-0.805,0.024,28.47,-3.85,23.83
327705.031000,-0.374,-0.82,0.018,34.76,-5.43,26.22
327705.046000,-0.358,-0.828,0.009,42.36,-7.57,28.02
327705.046000,-0.382,-0.832,-0.007,51.12,-10.62,29.6
327705.062000,-0.439,-0.838,-0.021,61.53,-12.48,34.24
327705.078000,-0.51,-0.873,-0.037,75.08,-13.12,43.82
327705.078000,-0.564,-0.958,-0.04,90.67,-15.9,56.89
327705.093000,-0.587,-1.1,-0.023,109.65,-22.25,69.06
327705.109000,-0.597,-1.277,0.016,137.06,-29.11,75.99
327705.109000,-0.63,-1.436,0.057,178.56,-35.77,77.73
327705.125000,-0.675,-1.543,0.1,235.76,-40.99,78.65
327705.125000,-0.725,-1.604,0.139,304.09,-45.96,82.31
327705.140000,-0.8,-1.637,0.152,374.89,-54.6,88.72
327705.156000,-0.851,-1.644,0.174,438.83,-68.67,98.21
327705.171000,-0.868,-1.653,0.22,494.49,-91.62,108.86
327705.171000,-0.864,-1.68,0.278,543.14,-116.43,114.11
327705.187000,-0.86,-1.678,0.344,584.09,-139.5,109.26
327705.187000,-0.835,-1.596,0.335,615.59,-154.55,92.84
327705.187000,-0.775,-1.409,0.242,623.13,-157.75,65.74
327705.203000,-0.709,-1.155,0.152,598.71,-150.49,24.05
327705.218000,-0.658,-0.874,0.123,545.73,-127.08,-32.87
327705.218000,-0.623,-0.606,0.137,471.33,-89.94,-97.29
327705.234000,-0.635,-0.365,0.144,383.13,-47.55,-162.76
327705.234000,-0.654,-0.151,0.203,284.68,-3.57,-220.95
327705.250000,-0.693,0.0,0.332,190.28,45.53,-270.55
327705.265000,-0.787,0.11,0.532,113.65,90.46,-306.8
327705.265000,-0.933,0.211,0.731,64.97,126.19,-324.17
327705.296000,-1.05,0.285,0.917,42.79,140.93,-319.68
327705.296000,-1.095,0.368,1.092,44.1,141.85,-299.87
327705.312000,-1.092,0.435,1.189,58.57,130.19,-270.67
327705.312000,-1.036,0.475,1.247,62.2,104.77,-235.51
327705.328000,-0.969,0.499,1.291,48.52,65.68,-200.02
327705.343000,-0.895,0.476,1.278,27.38,12.85,-165.01
327705.359000,-0.82,0.424,1.186,3.11,-41.44,-133.64
327705.359000,-0.747,0.37,1.057,-19.14,-86.09,-107.85
327705.375000,-0.684,0.316,0.922,-32.87,-116.98,-90.49
327705.390000,-0.612,0.274,0.81,-38.48,-133.52,-80.51
327705.390000,-0.547,0.24,0.737,-39.92,-138.4,-73.58
327705.406000,-0.476,0.222,0.696,-36.35,-133.09,-67.26
327705.406000,-0.395,0.214,0.666,-30.09,-119.45,-61.37
327705.406000,-0.323,0.197,0.649,-25.79,-101.93,-57.71
327705.421000,-0.278,0.183,0.654,-27.07,-82.71,-56.28
327705.437000,-0.263,0.183,0.662,-33.17,-63.78,-55.67
327705.437000,-0.28,0.178,0.657,-41.93,-49.81,-54.48
327705.453000,-0.294,0.163,0.664,-51.55,-40.35,-50.57
327705.453000,-0.304,0.134,0.677,-60.3,-32.75,-43.61
327705.468000,-0.321,0.102,0.696,-66.04,-28.66,-34.7
327705.484000,-0.321,0.075,0.725,-65.28,-25.61,-24.08
327705.484000,-0.3,0.053,0.741,-57.68,-22.68,-12.33
327705.500000,-0.272,0.022,0.755,-47.61,-20.57,-1.07
327705.515000,-0.258,-0.0,0.764,-37.11,-19.68,9.03
327705.515000,-0.255,-0.02,0.752,-28.14,-18.98,18.37
327705.546000,-0.254,-0.039,0.737,-23.32,-18.22,26.86
327705.562000,-0.256,-0.059,0.709,-22.16,-17.52,35.04
327705.562000,-0.255,-0.086,0.686,-24.9,-15.5,43.7
327705.578000,-0.266,-0.111,0.681,-30.06,-11.54,51.94
327705.578000,-0.287,-0.141,0.696,-33.88,-5.83,60.0
327705.593000,-0.31,-0.182,0.729,-28.72,6.23,76.72
327705.593000,-0.317,-0.234,0.774,-20.26,10.16,82.13
327705.609000,-0.312,-0.296,0.812,-11.87,11.17,83.41
327705.625000,-0.301,-0.35,0.828,-7.84,10.47,81.64
327705.640000,-0.296,-0.388,0.827,-9.67,8.61,78.52
327705.640000,-0.291,-0.405,0.806,-16.75,6.78,73.95
327705.656000,-0.283,-0.419,0.758,-26.73,5.89,69.03
327705.656000,-0.31,-0.421,0.755,-36.41,6.53,65.4
327705.656000,-0.347,-0.427,0.763,-41.38,9.64,64.03
327705.671000,-0.381,-0.447,0.779,-40.53,14.98,66.13
327705.671000,-0.404,-0.485,0.817,-36.32,20.69,71.47
327705.703000,-0.403,-0.534,0.867,-30.46,25.12,76.69
327705.703000,-0.41,-0.577,0.907,-23.22,28.05,78.01
327705.703000,-0.421,-0.598,0.929,-16.91,28.11,74.83
327705.734000,-0.448,-0.612,0.939,-14.07,25.03,68.42
327705.750000,-0.494,-0.622,0.929,-13.28,21.24,61.34
327705.750000,-0.526,-0.637,0.922,-13.06,18.74,55.3
327705.765000,-0.545,-0.659,0.921,-13.92,15.9,49.75
327705.781000,-0.555,-0.671,0.93,-15.35,13.46,43.31
327705.781000,-0.571,-0.663,0.942,-15.69,11.66,36.23
327705.796000,-0.574,-0.649,0.946,-14.47,9.4,28.75
327705.796000,-0.568,-0.622,0.938,-13.18,6.04,21.67
327705.812000,-0.565,-0.597,0.92,-12.91,2.26,15.26
327705.812000,-0.571,-0.58,0.897,-13.52,-1.98,10.44
327705.828000,-0.57,-0.569,0.87,-14.53,-5.89,7.2
327705.843000,-0.555,-0.566,0.84,-16.24,-9.58,5.25
327705.843000,-0.541,-0.567,0.811,-18.43,-12.42,3.51
327705.859000,-0.525,-0.571,0.792,-20.39,-13.82,0.92
327705.875000,-0.508,-0.567,0.771,-20.78,-14.22,-3.11
327705.875000,-0.503,-0.549,0.742,-21.15,-14.01,-7.08
327705.890000,-0.5,-0.526,0.725,-22.06,-11.78,-9.49
327705.906000,-0.502,-0.514,0.717,-22.34,-8.58,-9.95
327705.906000,-0.502,-0.518,0.73,-21.91,-5.37,-8.73
327705.921000,-0.5,-0.523,0.746,-19.07,-3.14,-7.63
327705.921000,-0.503,-0.531,0.749,-14.37,-1.4,-6.81
327705.937000,-0.497,-0.526,0.739,-9.98,-0.55,-6.59
327705.953000,-0.491,-0.517,0.722,-8.0,-0.4,-7.05
327705.968000,-0.484,-0.509,0.711,-8.45,-0.03,-7.75
327705.968000,-0.475,-0.505,0.707,-10.41,0.7,-9.06
327705.984000,-0.463,-0.503,0.703,-12.18,1.92,-11.08
327706.000000,-0.46,-0.495,0.697,-12.85,3.63,-13.37
327706.000000,-0.457,-0.489,0.698,-12.85,5.65,-15.17
327706.015000,-0.451,-0.482,0.706,-11.99,7.87,-16.27
327706.015000,-0.44,-0.478,0.711,-10.25,10.04,-17.06
327706.031000,-0.437,-0.476,0.727,-8.36,11.29,-18.31
327706.031000,-0.442,-0.467,0.739,-5.71,12.02,-19.07
327706.046000,-0.44,-0.447,0.745,-2.11,12.02,-18.56
327706.046000,-0.433,-0.436,0.743,1.46,11.69,-17.43
327706.078000,-0.424,-0.428,0.738,4.06,12.15,-15.41
327706.078000,-0.424,-0.42,0.726,4.85,12.39,-13.76
327706.078000,-0.421,-0.412,0.724,4.21,13.06,-11.99
327706.093000,-0.424,-0.411,0.731,3.33,14.19,-9.52
327706.109000,-0.432,-0.412,0.737,3.42,15.02,-6.99
327706.109000,-0.439,-0.412,0.744,4.7,15.69,-4.33
327706.125000,-0.448,-0.411,0.755,7.05,16.02,-2.08
327706.140000,-0.448,-0.407,0.759,10.22,16.33,-0.27
327706.140000,-0.439,-0.405,0.764,13.12,15.99,1.16
327706.171000,-0.438,-0.402,0.761,15.02,14.8,1.86
327706.171000,-0.438,-0.393,0.752,15.66,13.28,2.87
327706.171000,-0.44,-0.379,0.744,14.89,12.82,4.36
327706.187000,-0.443,-0.368,0.741,13.52,13.18,6.47
327706.203000,-0.441,-0.363,0.744,11.6,13.82,9.13
327706.203000,-0.437,-0.363,0.747,9.61,14.86,11.9
327706.218000,-0.434,-0.363,0.746,7.93,16.48,14.19
327706.234000,-0.436,-0.364,0.744,6.01,18.68,16.48
327706.250000,-0.443,-0.365,0.746,3.91,21.85,18.37
327706.250000,-0.464,-0.37,0.756,1.65,25.48,20.29
327706.250000,-0.488,-0.378,0.784,-0.58,29.73,22.13
327706.265000,-0.518,-0.392,0.817,-1.53,32.84,24.14
327706.281000,-0.544,-0.406,0.847,-2.2,34.12,25.73
327706.281000,-0.565,-0.42,0.874,-4.06,32.78,25.79
327706.296000,-0.574,-0.438,0.889,-6.59,28.6,24.66
327706.312000,-0.58,-0.446,0.887,-9.4,22.25,22.86
327706.328000,-0.577,-0.449,0.866,-11.93,15.35,21.39
327706.328000,-0.569,-0.452,0.841,-13.89,10.04,20.63
327706.343000,-0.563,-0.455,0.821,-15.29,6.9,20.33
327706.343000,-0.552,-0.459,0.804,-15.35,5.4,19.99
327706.359000,-0.538,-0.461,0.788,-14.25,5.1,19.38
327706.375000,-0.522,-0.465,0.772,-13.98,5.13,18.22
327706.375000,-0.512,-0.466,0.755,-15.78,4.55,16.08
327706.390000,-0.504,-0.471,0.746,-19.65,3.54,13.92
327706.406000,-0.499,-0.473,0.738,-22.83,2.99,11.44
327706.406000,-0.506,-0.469,0.73,-25.97,2.2,9.13
327706.421000,-0.509,-0.463,0.726,-27.89,1.65,7.45
327706.437000,-0.512,-0.46,0.724,-28.08,1.92,6.53
327706.437000,-0.518,-0.456,0.72,-27.56,2.11,6.38
327706.453000,-0.521,-0.454,0.717,-27.04,2.66,6.44
327706.453000,-0.527,-0.452,0.717,-26.8,3.23,6.68
327706.468000,-0.535,-0.448,0.719,-26.7,2.93,6.99
327706.484000,-0.543,-0.441,0.72,-26.58,2.2,7.45
327706.484000,-0.558,-0.437,0.72,-26.09,1.1,8.12
327706.500000,-0.56,-0.43,0.72,-23.87,0.67,9.37
327706.500000,-0.573,-0.427,0.713,-20.87,1.04,11.6
327706.515000,-0.578,-0.423,0.71,-18.37,2.04,14.4
327706.531000,-0.58,-0.425,0.705,-15.81,3.81,16.94
327706.531000,-0.589,-0.429,0.702,-14.04,5.28,18.95
327706.546000,-0.601,-0.428,0.708,-13.21,7.29,20.39
327706.562000,-0.619,-0.423,0.719,-11.63,9.89,21.85
327706.578000,-0.639,-0.424,0.73,-9.0,11.84,23.71
327706.578000,-0.651,-0.426,0.743,-7.35,12.54,25.39
327706.593000,-0.656,-0.426,0.748,-7.29,11.66,25.82
327706.593000,-0.666,-0.423,0.739,-9.49,9.22,25.7
327706.609000,-0.667,-0.42,0.731,-13.49,5.25,25.57
327706.625000,-0.657,-0.424,0.717,-18.22,1.31,25.12
327706.625000,-0.653,-0.431,0.69,-23.16,-1.65,24.87
327706.640000,-0.646,-0.438,0.669,-27.92,-4.15,25.12
327706.656000,-0.636,-0.448,0.655,-30.98,-5.22,26.15
327706.656000,-0.626,-0.462,0.641,-32.38,-4.91,27.34
327706.671000,-0.629,-0.476,0.628,-32.72,-3.66,28.23
327706.671000,-0.628,-0.493,0.62,-32.14,-2.29,28.11
327706.687000,-0.624,-0.509,0.618,-31.31,-1.53,27.13
327706.687000,-0.616,-0.513,0.615,-31.1,-0.15,24.96
327706.703000,-0.618,-0.516,0.611,-31.34,2.08,21.7
327706.718000,-0.631,-0.517,0.602,-32.38,2.9,18.4
327706.718000,-0.634,-0.516,0.6,-34.06,2.41,15.63
327706.734000,-0.635,-0.512,0.6,-35.65,2.01,13.37
327706.750000,-0.647,-0.514,0.602,-36.68,4.12,11.69
327706.765000,-0.665,-0.516,0.61,-35.95,7.08,11.41
327706.765000,-0.672,-0.528,0.625,-33.54,9.13,11.93
327706.765000,-0.683,-0.547,0.635,-29.36,10.19,11.84
327706.781000,-0.691,-0.562,0.646,-24.48,8.3,11.26
327706.796000,-0.69,-0.569,0.649,-18.16,5.71,9.0
327706.812000,-0.682,-0.563,0.644,-11.51,2.56,6.01
327706.812000,-0.678,-0.553,0.631,-6.01,0.18,2.44
327706.828000,-0.678,-0.536,0.606,-2.29,-1.74,-0.95
327706.843000,-0.67,-0.513,0.583,-0.76,-2.72,-3.05
327706.843000,-0.661,-0.496,0.565,-1.16,-2.14,-4.61
327706.859000,-0.657,-0.485,0.553,-2.5,-0.49,-5.55
327706.875000,-0.649,-0.478,0.552,-4.09,1.92,-6.5
327706.875000,-0.645,-0.476,0.556,-5.28,4.39,-7.11
327706.875000,-0.648,-0.473,0.566,-5.34,6.41,-7.02
327706.890000,-0.647,-0.469,0.578,-3.75,7.51,-6.26
327706.906000,-0.643,-0.466,0.58,-0.98,7.57,-4.97
327706.906000,-0.641,-0.461,0.578,1.8,6.87,-3.17
327706.937000,-0.635,-0.459,0.573,4.33,6.16,-1.04
327706.937000,-0.632,-0.456,0.567,6.1,5.62,1.01
327706.953000,-0.634,-0.454,0.558,7.11,5.95,2.66
327706.953000,-0.636,-0.457,0.553,7.26,7.42,3.91
327706.968000,-0.639,-0.461,0.555,6.13,9.34,4.49
327706.968000,-0.649,-0.464,0.564,4.3,11.35,4.55
327706.984000,-0.663,-0.468,0.576,2.96,13.79,4.39
327706.984000,-0.671,-0.471,0.589,2.47,16.14,4.21
327707.000000,-0.682,-0.474,0.605,2.32,17.94,4.12
327707.015000,-0.698,-0.48,0.626,2.75,19.14,3.69
327707.015000,-0.712,-0.485,0.634,3.85,17.82,2.96
327707.031000,-0.708,-0.483,0.639,4.85,14.1,2.01
327707.046000,-0.707,-0.484,0.633,5.65,10.47,1.34
327707.062000,-0.709,-0.483,0.617,5.74,6.68,1.31
327707.078000,-0.698,-0.483,0.604,5.8,3.78,1.86
327707.078000,-0.69,-0.483,0.587,6.16,2.29,2.78
327707.093000,-0.683,-0.486,0.577,7.29,2.66,3.69
327707.109000,-0.679,-0.493,0.568,8.18,4.09,3.94
327707.109000,-0.678,-0.496,0.567,7.84,5.74,3.3
327707.125000,-0.678,-0.495,0.572,6.68,7.23,2.41
327707.125000,-0.676,-0.497,0.581,5.31,8.03,1.22
327707.140000,-0.671,-0.502,0.586,4.33,8.79,-0.06
327707.156000,-0.681,-0.507,0.582,3.57,8.15,-1.31
327707.156000,-0.678,-0.506,0.585,3.51,5.55,-1.98
327707.171000,-0.671,-0.506,0.582,4.79,4.15,-2.23
327707.187000,-0.674,-0.499,0.571,7.51,5.01,-2.17
327707.187000,-0.678,-0.492,0.563,7.45,6.93,-2.11
327707.203000,-0.686,-0.489,0.564,6.74,8.88,-2.38
327707.218000,-0.691,-0.486,0.576,5.92,9.86,-2.62
327707.218000,-0.697,-0.487,0.588,4.79,9.92,-3.2
327707.234000,-0.704,-0.488,0.599,3.81,9.13,-4.09
327707.234000,-0.707,-0.479,0.603,2.99,7.93,-5.01
327707.250000,-0.713,-0.471,0.594,1.83,6.81,-5.34
327707.265000,-0.717,-0.466,0.589,0.64,5.43,-4.88
327707.265000,-0.705,-0.463,0.589,0.18,4.73,-4.12
327707.281000,-0.704,-0.462,0.584,0.15,4.49,-3.66
327707.281000,-0.699,-0.46,0.577,-0.18,4.24,-3.05
327707.281000,-0.686,-0.459,0.568,-1.04,3.75,-2.59
327707.296000,-0.682,-0.457,0.56,-2.38,2.93,-2.41
327707.312000,-0.675,-0.454,0.549,-3.66,2.62,-2.14
327707.328000,-0.67,-0.453,0.536,-4.88,2.81,-1.77
327707.343000,-0.669,-0.455,0.531,-5.86,3.63,-1.13
327707.343000,-0.673,-0.461,0.538,-6.07,5.01,-0.46
327707.359000,-0.676,-0.469,0.551,-4.82,6.56,0.49
327707.375000,-0.676,-0.471,0.562,-3.08,7.32,1.07
327707.390000,-0.682,-0.468,0.566,-2.14,6.65,1.53
327707.390000,-0.688,-0.464,0.57,-2.08,5.04,2.23
327707.406000,-0.688,-0.46,0.571,-2.29,3.54,3.33
327707.406000,-0.691,-0.464,0.57,-2.59,2.38,4.3
327707.421000,-0.695,-0.469,0.575,-2.84,1.74,5.19
327707.437000,-0.695,-0.47,0.58,-2.26,1.98,5.62
327707.437000,-0.7,-0.472,0.58,-1.65,2.96,5.62
327707.453000,-0.71,-0.477,0.581,-2.11,1.86,5.71
327707.453000,-0.699,-0.478,0.59,-2.72,0.49,5.22
327707.468000,-0.697,-0.48,0.588,-3.23,-0.85,4.49
327707.468000,-0.7,-0.473,0.583,-4.0,-2.32,4.21
327707.484000,-0.695,-0.472,0.579,-4.0,-3.3,4.49
327707.500000,-0.691,-0.479,0.575,-3.6,-3.81,4.91
327707.500000,-0.697,-0.484,0.576,-3.14,-4.46,5.49
327707.515000,-0.705,-0.491,0.575,-2.23,-4.55,6.07
327707.531000,-0.709,-0.5,0.577,-1.28,-4.49,6.74
327707.546000,-0.708,-0.512,0.579,-0.21,-4.91,7.69
327707.546000,-0.709,-0.526,0.574,0.34,-4.97,8.03
327707.546000,-0.719,-0.538,0.565,0.61,-5.98,8.39
327707.562000,-0.715,-0.544,0.572,1.19,-6.96,8.58
327707.578000,-0.72,-0.551,0.574,2.93,-6.38,8.51
327707.578000,-0.722,-0.552,0.579,5.22,-4.94,8.27
327707.593000,-0.733,-0.554,0.58,7.17,-2.9,7.75
327707.609000,-0.735,-0.549,0.585,8.12,-2.29,6.96
327707.625000,-0.725,-0.549,0.588,8.33,-2.44,5.49
327707.625000,-0.712,-0.545,0.587,7.35,-2.93,3.36
327707.625000,-0.698,-0.535,0.585,5.83,-3.11,0.37
327707.640000,-0.686,-0.526,0.579,4.3,-3.05,-2.78
327707.656000,-0.672,-0.511,0.566,2.78,-2.29,-5.77
327707.671000,-0.661,-0.493,0.554,0.82,-0.95,-8.42
327707.671000,-0.655,-0.477,0.553,-1.19,0.58,-10.25
327707.687000,-0.645,-0.467,0.563,-2.66,2.17,-10.86
327707.687000,-0.634,-0.456,0.572,-2.72,3.08,-11.11
327707.718000,-0.635,-0.446,0.574,-1.95,3.36,-10.99
327707.718000,-0.626,-0.435,0.582,-0.95,3.36,-10.16
327707.734000,-0.617,-0.423,0.584,0.37,2.75,-9.03
327707.734000,-0.612,-0.413,0.578,1.1,1.77,-7.75
327707.750000,-0.6,-0.405,0.581,1.25,1.34,-6.07
327707.765000,-0.591,-0.399,0.581,2.14,1.01,-4.36
327707.781000,-0.593,-0.393,0.574,2.72,1.04,-2.72
327707.781000,-0.596,-0.386,0.576,2.78,2.26,-0.85
327707.781000,-0.592,-0.38,0.588,3.23,4.52,1.28
327707.796000,-0.602,-0.38,0.596,3.57,5.95,3.23
327707.812000,-0.617,-0.375,0.617,3.14,7.11,5.28
327707.812000,-0.627,-0.374,0.637,3.27,7.87,7.63
327707.828000,-0.637,-0.379,0.652,3.97,7.51,10.1
327707.843000,-0.649,-0.38,0.666,4.43,6.01,12.67
327707.843000,-0.661,-0.383,0.681,4.94,4.21,15.41
327707.859000,-0.671,-0.385,0.688,6.01,2.26,18.22
327707.875000,-0.676,-0.393,0.698,7.26,0.18,21.06
327707.890000,-0.677,-0.401,0.7,8.61,-1.89,23.32
327707.890000,-0.671,-0.41,0.696,8.76,-4.39,25.03
327707.906000,-0.662,-0.416,0.683,7.9,-6.78,25.88
327707.906000,-0.662,-0.424,0.662,5.46,-8.67,26.18
327707.921000,-0.665,-0.433,0.656,2.47,-9.49,26.52
327707.937000,-0.658,-0.447,0.654,0.79,-9.22,27.13
327707.937000,-0.649,-0.465,0.644,-0.4,-8.79,26.92
327707.953000,-0.648,-0.48,0.642,-2.5,-9.0,26.09
327707.968000,-0.644,-0.49,0.647,-4.12,-9.03,24.66
327707.968000,-0.642,-0.5,0.648,-4.24,-9.19,22.92
327707.984000,-0.634,-0.503,0.647,-3.36,-9.03,21.12
327707.984000,-0.636,-0.5,0.637,-2.93,-9.25,19.23
327708.000000,-0.635,-0.496,0.639,-3.11,-8.88,17.67
327708.015000,-0.638,-0.492,0.646,-2.69,-8.24,15.99
327708.031000,-0.641,-0.485,0.646,-2.17,-7.2,14.47
327708.031000,-0.645,-0.476,0.646,-2.08,-6.41,13.09
327708.046000,-0.65,-0.468,0.647,-2.93,-6.35,11.38
327708.046000,-0.66,-0.459,0.65,-4.43,-5.95,9.86
327708.062000,-0.663,-0.45,0.655,-5.71,-5.04,8.24
327708.078000,-0.666,-0.442,0.657,-6.53,-4.61,6.84
327708.078000,-0.675,-0.434,0.659,-7.42,-4.82,5.83
327708.093000,-0.678,-0.425,0.668,-7.66,-5.4,5.28
327708.093000,-0.683,-0.421,0.669,-7.02,-5.52,5.07
327708.109000,-0.692,-0.417,0.668,-6.44,-6.68,5.34
327708.125000,-0.694,-0.416,0.67,-5.62,-7.75,5.62
327708.140000,-0.697,-0.416,0.666,-4.67,-8.64,5.71
327708.140000,-0.694,-0.418,0.659,-4.18,-9.61,5.49
327708.156000,-0.686,-0.418,0.654,-4.24,-10.35,4.85
327708.156000,-0.677,-0.415,0.646,-4.82,-10.86,3.63
327708.171000,-0.67,-0.411,0.635,-5.65,-11.41,2.5
327708.187000,-0.665,-0.408,0.626,-6.16,-11.66,1.74
327708.187000,-0.66,-0.402,0.621,-6.07,-11.23,1.74
327708.203000,-0.656,-0.399,0.618,-5.28,-10.32,2.2
327708.203000,-0.656,-0.4,0.618,-3.69,-9.4,3.11
327708.218000,-0.661,-0.399,0.62,-1.92,-8.33,4.24
327708.234000,-0.664,-0.402,0.628,-0.03,-7.14,5.1
327708.234000,-0.665,-0.409,0.637,1.46,-6.41,5.49
327708.250000,-0.668,-0.411,0.64,2.23,-6.32,5.43
327708.265000,-0.671,-0.411,0.641,2.29,-6.5,5.16
327708.265000,-0.671,-0.412,0.643,2.08,-6.68,4.73
327708.281000,-0.667,-0.414,0.644,2.14,-6.74,4.58
327708.296000,-0.665,-0.416,0.641,1.89,-6.47,4.24
327708.296000,-0.666,-0.415,0.636,1.31,-5.95,3.78
327708.312000,-0.669,-0.414,0.635,1.01,-5.25,3.75
327708.312000,-0.675,-0.416,0.637,0.73,-4.09,3.91
327708.328000,-0.68,-0.422,0.646,0.67,-3.17,4.24
327708.343000,-0.688,-0.426,0.657,1.5,-2.72,4.7
327708.343000,-0.69,-0.429,0.658,2.62,-3.02,5.1
327708.359000,-0.691,-0.431,0.653,2.78,-3.94,4.91
327708.359000,-0.691,-0.429,0.651,2.11,-5.07,4.18
327708.375000,-0.685,-0.425,0.643,1.31,-5.74,3.14
327708.390000,-0.678,-0.419,0.63,0.0,-5.95,1.8
327708.390000,-0.666,-0.411,0.621,-1.62,-5.86,0.49
327708.406000,-0.659,-0.401,0.615,-2.99,-5.46,-0.52
327708.406000,-0.651,-0.389,0.61,-3.27,-5.04,-0.89
327708.421000,-0.644,-0.381,0.608,-2.62,-4.39,-0.15
327708.437000,-0.638,-0.373,0.605,-1.46,-3.66,1.16
327708.453000,-0.631,-0.37,0.606,-0.09,-2.99,2.87
327708.468000,-0.629,-0.371,0.604,0.92,-2.26,4.64
327708.468000,-0.632,-0.374,0.604,1.56,-1.13,6.2
327708.484000,-0.64,-0.379,0.611,2.08,0.73,7.35
327708.484000,-0.653,-0.386,0.624,2.59,2.75,7.97
327708.500000,-0.66,-0.394,0.639,2.9,4.55,8.27
327708.515000,-0.667,-0.4,0.654,2.78,6.29,7.6
327708.531000,-0.684,-0.399,0.662,2.08,5.8,6.07
327708.531000,-0.698,-0.393,0.676,1.62,4.61,5.13
327708.546000,-0.716,-0.389,0.679,2.08,3.85,5.1
327708.546000,-0.726,-0.396,0.688,2.96,3.14,5.86
327708.562000,-0.729,-0.403,0.695,4.46,2.2,6.5
327708.562000,-0.724,-0.41,0.686,5.4,0.7,6.16
327708.578000,-0.719,-0.414,0.677,4.76,-1.19,4.76
327708.593000,-0.712,-0.414,0.663,3.48,-2.96,2.81
327708.593000,-0.705,-0.409,0.648,1.98,-3.66,0.52
327708.609000,-0.698,-0.403,0.639,0.82,-3.72,-1.5
327708.609000,-0.687,-0.396,0.629,0.31,-3.3,-2.69
327708.625000,-0.678,-0.39,0.621,0.64,-2.66,-3.3
327708.640000,-0.672,-0.385,0.611,1.34,-1.86,-2.99
327708.656000,-0.669,-0.393,0.604,2.47,-1.16,-1.74
327708.656000,-0.664,-0.41,0.607,3.85,-0.67,-0.34
327708.671000,-0.655,-0.427,0.613,6.2,-0.12,0.64
327708.687000,-0.65,-0.434,0.61,9.34,0.12,0.52
327708.687000,-0.644,-0.437,0.608,11.93,0.79,-0.58
327708.703000,-0.64,-0.435,0.6,13.25,1.74,-2.5
327708.703000,-0.638,-0.426,0.593,12.82,2.84,-4.64
327708.718000,-0.638,-0.417,0.589,10.93,4.18,-6.2
327708.734000,-0.642,-0.417,0.593,8.88,5.86,-6.96
327708.734000,-0.648,-0.421,0.605,8.24,7.97,-7.23
327708.750000,-0.652,-0.426,0.616,9.16,10.22,-7.81
327708.750000,-0.66,-0.428,0.624,10.32,11.87,-8.36
327708.765000,-0.666,-0.426,0.632,11.47,13.06,-9.55
327708.781000,-0.677,-0.426,0.638,11.69,13.03,-9.83
327708.796000,-0.691,-0.43,0.643,12.3,12.76,-9.61
327708.796000,-0.696,-0.436,0.655,13.76,12.42,-9.77
327708.812000,-0.7,-0.442,0.66,15.87,11.69,-10.74
327708.812000,-0.705,-0.446,0.665,18.1,10.01,-11.87
327708.828000,-0.704,-0.44,0.663,20.57,8.36,-12.45
327708.843000,-0.696,-0.44,0.661,23.26,6.68,-12.91
327708.843000,-0.684,-0.444,0.659,27.1,4.91,-13.7
327708.859000,-0.677,-0.443,0.637,31.8,3.36,-14.77
327708.875000,-0.657,-0.431,0.613,34.42,2.17,-15.87
327708.875000,-0.632,-0.423,0.596,36.01,2.32,-17.15
327708.890000,-0.62,-0.416,0.571,37.11,3.69,-18.01
327708.890000,-0.605,-0.417,0.571,38.33,4.79,-19.99
327708.906000,-0.604,-0.411,0.574,40.44,5.74,-22.25
327708.906000,-0.609,-0.392,0.583,43.89,7.26,-23.35
327708.921000,-0.615,-0.387,0.582,49.23,8.0,-23.1
327708.937000,-0.621,-0.38,0.575,54.41,8.33,-21.52
327708.953000,-0.62,-0.367,0.572,58.93,9.4,-18.8
327708.953000,-0.62,-0.361,0.566,62.35,11.99,-16.02
327708.968000,-0.626,-0.355,0.57,64.39,14.62,-14.37
327708.984000,-0.63,-0.356,0.579,65.74,17.37,-13.79
327709.000000,-0.636,-0.353,0.599,66.74,20.11,-13.09
327709.000000,-0.646,-0.364,0.617,69.25,22.0,-12.09
327709.015000,-0.652,-0.387,0.645,73.49,21.24,-12.54
327709.015000,-0.652,-0.393,0.656,78.83,18.92,-14.77
327709.015000,-0.654,-0.379,0.64,83.41,16.42,-17.21
327709.031000,-0.649,-0.36,0.619,86.49,14.44,-19.2
327709.046000,-0.645,-0.343,0.603,87.68,14.34,-20.84
327709.046000,-0.655,-0.33,0.59,86.61,17.67,-22.31
327709.062000,-0.662,-0.312,0.58,84.66,21.39,-23.1
327709.078000,-0.665,-0.307,0.58,82.13,25.79,-23.47
327709.078000,-0.67,-0.313,0.594,79.1,29.57,-23.99
327709.093000,-0.69,-0.313,0.604,77.12,32.96,-25.94
327709.093000,-0.725,-0.31,0.606,76.11,36.19,-28.47
327709.109000,-0.759,-0.307,0.626,75.59,39.49,-30.43
327709.125000,-0.798,-0.324,0.673,77.03,41.6,-32.26
327709.125000,-0.852,-0.331,0.71,81.79,43.24,-35.31
327709.156000,-0.881,-0.317,0.743,87.98,44.65,-38.94
327709.156000,-0.902,-0.295,0.755,93.6,44.16,-43.98
327709.156000,-0.924,-0.264,0.751,93.94,42.12,-49.59
327709.171000,-0.935,-0.225,0.754,87.5,38.42,-55.39
327709.187000,-0.941,-0.198,0.76,76.05,33.75,-60.98
327709.187000,-0.956,-0.17,0.768,62.59,28.57,-66.35
327709.203000,-0.967,-0.148,0.768,50.57,23.5,-69.43
327709.203000,-0.959,-0.14,0.762,41.11,19.23,-69.34
327709.218000,-0.935,-0.142,0.758,33.02,15.96,-68.18
327709.218000,-0.903,-0.148,0.755,25.85,13.0,-67.26
327709.250000,-0.867,-0.153,0.754,19.53,9.7,-67.11
327709.250000,-0.831,-0.155,0.747,13.09,6.29,-67.9
327709.250000,-0.795,-0.157,0.745,7.14,2.75,-68.94
327709.265000,-0.769,-0.167,0.729,2.5,-1.01,-69.58
327709.281000,-0.742,-0.178,0.708,-1.22,-4.18,-69.22
327709.281000,-0.723,-0.185,0.691,-4.61,-6.23,-67.75
327709.312000,-0.709,-0.2,0.683,-6.59,-6.68,-64.79
327709.328000,-0.692,-0.221,0.688,-6.07,-5.58,-60.52
327709.328000,-0.68,-0.237,0.694,-2.62,-2.53,-56.22
327709.343000,-0.668,-0.257,0.704,3.54,1.37,-53.56
327709.359000,-0.66,-0.283,0.721,6.99,4.3,-53.1
327709.359000,-0.656,-0.302,0.74,6.2,5.68,-54.6
327709.359000,-0.66,-0.318,0.749,2.44,4.43,-57.92
327709.375000,-0.659,-0.335,0.739,-2.59,4.06,-61.59
327709.390000,-0.666,-0.318,0.747,-10.44,4.7,-65.95
327709.406000,-0.678,-0.319,0.75,-21.76,2.66,-71.23
327709.406000,-0.693,-0.348,0.754,-25.82,2.84,-72.27
327709.421000,-0.687,-0.368,0.767,-20.14,5.07,-69.86
327709.437000,-0.683,-0.38,0.777,-15.29,6.65,-66.84
327709.437000,-0.676,-0.375,0.788,-12.42,7.02,-64.85
327709.453000,-0.666,-0.372,0.805,-9.43,4.67,-64.15
327709.453000,-0.663,-0.366,0.811,-8.18,0.85,-64.18
327709.453000,-0.659,-0.349,0.806,-9.43,-4.15,-64.94
327709.468000,-0.646,-0.334,0.793,-11.75,-8.21,-65.13
327709.484000,-0.642,-0.317,0.772,-14.53,-10.93,-64.39
327709.484000,-0.64,-0.305,0.761,-17.94,-12.05,-62.01
327709.515000,-0.629,-0.308,0.756,-19.99,-11.99,-57.95
327709.531000,-0.612,-0.318,0.753,-20.97,-11.72,-52.92
327709.531000,-0.596,-0.33,0.75,-21.45,-11.87,-48.04
327709.546000,-0.589,-0.339,0.743,-21.39,-12.12,-44.4
327709.562000,-0.575,-0.348,0.741,-20.97,-12.33,-42.15
327709.562000,-0.56,-0.352,0.738,-21.42,-13.09,-41.54
327709.578000,-0.554,-0.347,0.721,-24.29,-14.37,-41.66
327709.578000,-0.544,-0.335,0.706,-29.02,-14.56,-42.09
327709.593000,-0.539,-0.328,0.695,-34.15,-13.21,-42.85
327709.593000,-0.542,-0.321,0.693,-40.44,-11.23,-42.94
327709.593000,-0.546,-0.318,0.699,-45.96,-8.76,-41.51
327709.625000,-0.549,-0.329,0.707,-48.89,-6.62,-38.54
327709.625000,-0.552,-0.341,0.709,-50.02,-5.37,-34.82
327709.625000,-0.559,-0.363,0.713,-50.2,-5.07,-30.73
327709.656000,-0.555,-0.387,0.717,-50.02,-5.62,-27.22
327709.656000,-0.546,-0.407,0.712,-50.6,-7.42,-25.09
327709.656000,-0.549,-0.419,0.702,-52.16,-10.13,-23.96
327709.687000,-0.562,-0.424,0.689,-53.25,-12.76,-22.34
327709.687000,-0.574,-0.433,0.681,-52.46,-14.71,-18.52
327709.703000,-0.582,-0.453,0.672,-49.75,-16.17,-12.39
327709.703000,-0.579,-0.48,0.662,-45.81,-17.88,-6.29
327709.718000,-0.573,-0.518,0.642,-42.45,-19.87,-1.07
327709.734000,-0.556,-0.559,0.619,-40.59,-22.28,2.81
327709.750000,-0.543,-0.595,0.591,-40.47,-25.48,4.27
327709.750000,-0.532,-0.629,0.557,-40.56,-28.02,3.2
327709.765000,-0.528,-0.66,0.542,-40.96,-27.71,0.98
327709.765000,-0.532,-0.683,0.529,-40.71,-26.4,-0.64
327709.781000,-0.534,-0.708,0.521,-38.21,-23.56,-2.14
327709.781000,-0.535,-0.737,0.514,-35.34,-21.0,-4.18
327709.796000,-0.52,-0.754,0.507,-34.67,-19.44,-7.45
327709.812000,-0.52,-0.767,0.484,-36.71,-18.1,-11.54
327709.828000,-0.517,-0.77,0.467,-41.05,-17.46,-15.75
327709.828000,-0.516,-0.779,0.453,-45.23,-15.35,-19.68
327709.843000,-0.524,-0.791,0.439,-48.4,-12.88,-23.13
327709.859000,-0.512,-0.798,0.439,-50.14,-10.22,-26.49
327709.859000,-0.506,-0.812,0.443,-49.68,-5.22,-31.16
327709.875000,-0.515,-0.821,0.436,-48.34,-1.98,-35.95
327709.875000,-0.502,-0.811,0.445,-46.02,0.06,-41.26
327709.890000,-0.497,-0.797,0.444,-43.34,1.86,-45.87
327709.906000,-0.5,-0.776,0.43,-42.05,1.13,-48.25
327709.906000,-0.497,-0.763,0.417,-41.23,-0.18,-48.34
327709.921000,-0.485,-0.766,0.406,-40.68,0.37,-47.36
327709.937000,-0.484,-0.78,0.399,-41.2,2.04,-46.14
327709.937000,-0.479,-0.791,0.41,-42.05,4.3,-45.29
327709.953000,-0.484,-0.808,0.42,-42.21,7.66,-45.35
327709.953000,-0.484,-0.81,0.447,-41.11,8.48,-46.14
327709.968000,-0.48,-0.806,0.478,-37.2,10.07,-47.67
327709.984000,-0.475,-0.787,0.496,-31.34,11.81,-49.29
327709.984000,-0.475,-0.756,0.507,-25.42,13.89,-50.78
327710.000000,-0.483,-0.721,0.506,-20.75,12.3,-50.54
327710.000000,-0.467,-0.682,0.52,-17.49,8.33,-48.16
327710.015000,-0.46,-0.658,0.527,-14.25,6.65,-44.65
327710.031000,-0.46,-0.641,0.53,-11.84,5.01,-39.7
327710.031000,-0.456,-0.631,0.546,-9.03,4.76,-34.09
327710.062000,-0.45,-0.626,0.562,-5.22,6.07,-28.99
327710.062000,-0.439,-0.62,0.575,-1.74,7.72,-24.57
327710.078000,-0.43,-0.607,0.587,0.61,9.0,-21.0
327710.078000,-0.43,-0.595,0.597,2.08,9.89,-18.31
327710.093000,-0.451,-0.59,0.604,3.11,10.9,-14.86
327710.093000,-0.462,-0.588,0.615,3.78,12.27,-9.67
327710.109000,-0.456,-0.599,0.628,5.07,13.18,-4.27
327710.109000,-0.462,-0.615,0.634,5.92,12.63,-0.27
327710.125000,-0.468,-0.625,0.639,5.77,11.75,2.62
327710.140000,-0.476,-0.634,0.641,4.94,10.8,4.73
327710.140000,-0.489,-0.644,0.648,4.03,9.55,6.1
327710.156000,-0.49,-0.656,0.657,3.08,8.3,6.93
327710.156000,-0.492,-0.663,0.656,2.2,6.53,7.29
327710.171000,-0.493,-0.672,0.651,1.22,4.27,7.17
327710.187000,-0.491,-0.675,0.645,0.15,1.56,6.32
327710.203000,-0.494,-0.674,0.637,-1.13,-1.59,5.34
327710.203000,-0.495,-0.675,0.628,-1.77,-4.27,4.52
327710.218000,-0.494,-0.678,0.62,-1.59,-6.84,4.36
327710.234000,-0.488,-0.683,0.612,-1.34,-9.46,4.33
327710.234000,-0.489,-0.685,0.597,-1.1,-11.96,4.18
327710.250000,-0.485,-0.678,0.585,-0.92,-13.21,4.21
327710.265000,-0.48,-0.674,0.569,-0.79,-13.37,4.27
327710.265000,-0.481,-0.675,0.552,-1.77,-13.06,4.09
327710.265000,-0.485,-0.682,0.538,-4.33,-13.0,4.49
327710.281000,-0.476,-0.698,0.532,-7.23,-13.37,5.58
327710.296000,-0.467,-0.716,0.53,-9.25,-14.74,6.47
327710.296000,-0.475,-0.73,0.524,-9.89,-16.11,7.11
327710.312000,-0.474,-0.744,0.523,-7.97,-16.45,7.57
327710.328000,-0.465,-0.756,0.515,-5.1,-16.57,7.57
327710.343000,-0.459,-0.756,0.502,-4.0,-16.39,6.78
327710.359000,-0.449,-0.749,0.488,-4.64,-16.05,5.55
327710.359000,-0.445,-0.749,0.47,-11.32,-14.98,5.19
327710.375000,-0.438,-0.754,0.458,-15.84,-14.53,5.71
327710.375000,-0.44,-0.765,0.448,-19.04,-12.85,6.87
327710.390000,-0.442,-0.78,0.447,-19.65,-10.25,7.78
327710.406000,-0.433,-0.793,0.456,-17.67,-7.66,7.39
327710.406000,-0.431,-0.806,0.464,-14.65,-4.85,6.35
327710.421000,-0.437,-0.792,0.483,-11.93,-1.56,5.46
327710.437000,-0.444,-0.779,0.495,-9.98,1.71,4.49
327710.437000,-0.449,-0.771,0.514,-9.67,4.52,3.27
327710.453000,-0.45,-0.764,0.531,-11.32,5.77,2.11
327710.453000,-0.449,-0.753,0.54,-13.89,5.19,1.04
327710.468000,-0.441,-0.746,0.548,-16.94,3.2,-0.03
327710.484000,-0.428,-0.744,0.549,-20.17,0.58,-0.89
327710.484000,-0.426,-0.739,0.548,-23.32,-2.2,-1.74
327710.500000,-0.43,-0.745,0.546,-25.48,-4.49,-1.89
327710.515000,-0.427,-0.758,0.547,-26.15,-5.16,-1.53
327710.515000,-0.415,-0.77,0.546,-25.85,-4.67,-1.28
327710.531000,-0.403,-0.78,0.545,-25.27,-3.97,-1.5
327710.546000,-0.396,-0.785,0.544,-24.75,-3.51,-2.14
327710.546000,-0.398,-0.789,0.549,-23.99,-3.63,-2.14
327710.562000,-0.397,-0.791,0.557,-21.7,-3.75,-1.07
327710.562000,-0.401,-0.794,0.557,-17.64,-4.46,0.61
327710.578000,-0.402,-0.8,0.554,-12.82,-5.1,3.11
327710.593000,-0.401,-0.808,0.547,-8.06,-5.55,5.83
327710.593000,-0.395,-0.82,0.536,-5.07,-5.89,7.69
327710.609000,-0.375,-0.851,0.53,-4.33,-6.74,8.12
327710.609000,-0.351,-0.872,0.52,-4.79,-7.39,7.45
327710.625000,-0.338,-0.887,0.515,-5.74,-6.07,5.68
327710.640000,-0.347,-0.897,0.517,-5.58,-3.54,4.15
327710.640000,-0.386,-0.9,0.516,-2.99,-0.15,4.12
327710.656000,-0.408,-0.903,0.529,2.72,4.73,6.35
327710.671000,-0.416,-0.906,0.537,10.22,7.08,8.64
327710.671000,-0.421,-0.9,0.535,15.32,4.36,10.77
327710.687000,-0.418,-0.897,0.528,18.19,-2.23,13.18
327710.687000,-0.397,-0.904,0.509,19.35,-10.28,15.75
327710.703000,-0.371,-0.914,0.476,17.64,-18.98,18.13
327710.718000,-0.355,-0.934,0.437,14.83,-26.92,20.11
327710.718000,-0.34,-0.971,0.4,11.87,-32.04,21.55
327710.734000,-0.322,-1.006,0.367,8.79,-34.88,21.52
327710.750000,-0.311,-1.034,0.338,5.34,-35.52,19.41
327710.765000,-0.3,-1.05,0.308,1.74,-34.15,15.78
327710.765000,-0.29,-1.063,0.287,-1.77,-30.98,10.8
327710.765000,-0.282,-1.065,0.273,-5.49,-26.86,5.25
327710.796000,-0.287,-1.06,0.266,-8.94,-22.83,-0.03
327710.796000,-0.294,-1.054,0.271,-11.44,-18.28,-4.33
327710.812000,-0.303,-1.051,0.283,-11.54,-13.49,-7.48
327710.812000,-0.313,-1.049,0.297,-8.55,-8.82,-9.46
327710.828000,-0.32,-1.049,0.314,-3.97,-4.82,-10.96
327710.843000,-0.331,-1.041,0.326,1.83,-2.69,-12.54
327710.859000,-0.335,-1.026,0.33,7.84,-1.92,-14.1
327710.859000,-0.328,-1.002,0.332,12.76,-2.53,-15.84
327710.859000,-0.313,-0.975,0.328,14.8,-4.36,-17.64
327710.875000,-0.307,-0.941,0.318,13.79,-7.14,-19.59
327710.890000,-0.299,-0.91,0.302,10.38,-9.4,-20.91
327710.890000,-0.284,-0.888,0.295,5.65,-10.04,-21.94
327710.906000,-0.271,-0.874,0.289,0.09,-9.49,-23.1
327710.921000,-0.264,-0.865,0.288,-5.58,-8.18,-23.9
327710.937000,-0.252,-0.862,0.295,-10.13,-5.89,-23.96
327710.937000,-0.241,-0.863,0.305,-13.61,-3.78,-23.71
327710.953000,-0.238,-0.86,0.319,-15.44,-2.08,-23.22
327710.968000,-0.235,-0.859,0.331,-15.44,-0.4,-22.16
327710.968000,-0.229,-0.859,0.343,-14.34,0.73,-21.0
327710.984000,-0.235,-0.858,0.351,-13.0,0.89,-19.87
327710.984000,-0.235,-0.859,0.358,-12.33,0.85,-18.43
327711.000000,-0.23,-0.865,0.371,-11.96,0.55,-17.09
327711.000000,-0.227,-0.872,0.381,-11.54,0.0,-16.75
327711.015000,-0.229,-0.873,0.389,-12.24,-0.49,-17.09
327711.031000,-0.232,-0.869,0.4,-12.79,-0.89,-17.67
327711.031000,-0.235,-0.865,0.411,-12.63,-0.76,-17.61
327711.046000,-0.237,-0.859,0.419,-11.9,-0.31,-17.06
327711.062000,-0.239,-0.855,0.432,-10.38,-0.09,-16.33
327711.062000,-0.24,-0.852,0.441,-8.18,-0.49,-15.69
327711.078000,-0.248,-0.848,0.445,-6.01,-1.1,-15.29
327711.078000,-0.247,-0.847,0.454,-4.24,-1.83,-14.92
327711.109000,-0.242,-0.85,0.463,-2.96,-3.27,-15.72
327711.109000,-0.241,-0.843,0.469,-2.41,-5.1,-17.46
327711.109000,-0.236,-0.827,0.474,-2.14,-6.87,-19.38
327711.125000,-0.235,-0.812,0.485,-1.89,-8.73,-20.69
327711.140000,-0.239,-0.795,0.496,-2.01,-10.59,-20.87
327711.140000,-0.237,-0.779,0.512,-1.46,-12.39,-19.56
327711.171000,-0.23,-0.769,0.524,0.0,-14.22,-17.12
327711.171000,-0.22,-0.761,0.531,1.53,-16.42,-14.01
327711.187000,-0.208,-0.757,0.536,3.11,-19.1,-10.77
327711.187000,-0.198,-0.76,0.529,4.49,-21.09,-6.93
327711.203000,-0.202,-0.761,0.515,5.04,-22.03,-1.83
327711.203000,-0.226,-0.773,0.501,4.61,-22.19,5.04
327711.218000,-0.274,-0.799,0.502,4.79,-21.0,13.67
327711.234000,-0.321,-0.847,0.516,7.6,-18.92,22.74
327711.234000,-0.352,-0.9,0.543,13.25,-17.33,29.15
327711.250000,-0.369,-0.935,0.561,19.62,-18.56,30.88
327711.265000,-0.378,-0.951,0.565,25.3,-22.22,28.35
327711.281000,-0.371,-0.943,0.552,28.32,-28.47,22.77
327711.281000,-0.358,-0.922,0.517,27.41,-36.77,15.56
327711.296000,-0.343,-0.899,0.476,22.64,-44.74,8.0
327711.296000,-0.321,-0.882,0.434,15.81,-49.53,1.01
327711.312000,-0.299,-0.866,0.396,9.64,-50.51,-4.7
327711.312000,-0.28,-0.856,0.365,4.73,-47.94,-9.22
327711.328000,-0.266,-0.86,0.342,0.73,-43.31,-13.06
327711.343000,-0.253,-0.88,0.328,-2.66,-37.84,-16.21
327711.343000,-0.24,-0.905,0.318,-5.52,-32.62,-18.83
327711.359000,-0.232,-0.937,0.31,-8.3,-28.2,-21.61
327711.375000,-0.227,-0.973,0.311,-10.74,-23.44,-25.18
327711.375000,-0.224,-1.0,0.309,-12.42,-18.1,-29.54
327711.390000,-0.234,-1.021,0.309,-13.34,-11.93,-34.61
327711.390000,-0.25,-1.034,0.319,-13.52,-4.79,-39.83
327711.406000,-0.274,-1.047,0.329,-12.18,3.69,-44.92
327711.421000,-0.295,-1.069,0.333,-9.64,14.22,-50.05
327711.421000,-0.305,-1.083,0.351,-8.67,25.3,-55.27
327711.437000,-0.309,-1.092,0.379,-10.28,34.82,-60.98
327711.453000,-0.31,-1.103,0.408,-14.56,41.96,-68.3
327711.468000,-0.301,-1.1,0.446,-20.23,46.45,-76.94
327711.468000,-0.297,-1.084,0.484,-25.3,48.16,-85.27
327711.484000,-0.297,-1.063,0.511,-27.28,47.36,-91.1
327711.500000,-0.285,-1.047,0.528,-25.03,46.14,-93.97
327711.500000,-0.274,-1.051,0.523,-19.87,43.98,-94.67
327711.500000,-0.256,-1.058,0.509,-15.11,41.57,-94.06
327711.515000,-0.226,-1.062,0.499,-11.69,40.41,-93.81
327711.531000,-0.201,-1.08,0.477,-9.03,39.64,-94.0
327711.546000,-0.156,-1.092,0.469,-8.58,40.44,-95.61
327711.546000,-0.127,-1.099,0.474,-8.85,44.43,-98.76
327711.562000,-0.1,-1.091,0.486,-8.3,48.62,-102.54
327711.578000,-0.103,-1.084,0.483,-4.09,55.06,-106.48
327711.578000,-0.102,-1.064,0.477,2.17,61.59,-109.32
327711.593000,-0.105,-1.04,0.464,8.42,68.85,-111.82
327711.593000,-0.118,-1.021,0.463,12.57,72.91,-113.99
327711.609000,-0.147,-1.006,0.463,15.44,74.34,-115.82
327711.609000,-0.189,-1.003,0.476,17.3,75.72,-116.34
327711.625000,-0.217,-1.009,0.504,19.23,75.93,-116.7
327711.640000,-0.235,-1.019,0.529,20.36,75.5,-118.66
327711.640000,-0.276,-1.036,0.533,19.84,73.64,-122.96
327711.671000,-0.285,-1.05,0.516,16.66,73.21,-129.06
327711.671000,-0.273,-1.06,0.5,8.06,74.25,-138.77
327711.671000,-0.249,-1.054,0.484,-5.1,77.21,-151.77
327711.703000,-0.229,-1.023,0.463,-20.48,82.98,-166.72
327711.703000,-0.184,-1.025,0.457,-37.75,90.55,-181.25
327711.718000,-0.17,-1.002,0.443,-54.69,102.08,-195.23
327711.734000,-0.14,-1.0,0.421,-72.54,115.88,-206.98
327711.734000,-0.119,-1.032,0.392,-95.61,133.03,-221.81
327711.750000,-0.137,-1.031,0.414,-125.52,147.89,-239.57
327711.750000,-0.075,-1.03,0.476,-151.86,160.13,-255.81
327711.765000,-0.041,-1.042,0.486,-171.97,170.08,-274.21
327711.781000,-0.07,-1.031,0.444,-193.79,178.23,-294.69
327711.781000,-0.087,-1.035,0.483,-220.95,191.41,-312.11
327711.796000,-0.09,-1.016,0.566,-244.73,197.03,-325.97
327711.796000,-0.067,-0.99,0.717,-255.87,195.04,-332.99
327711.812000,-0.019,-0.941,0.871,-249.43,185.31,-330.09
327711.828000,0.071,-0.876,0.899,-222.3,164.71,-322.58
327711.828000,0.141,-0.809,0.773,-193.91,144.47,-318.34
327711.843000,0.213,-0.735,0.696,-183.39,132.63,-318.52
327711.859000,0.229,-0.671,0.679,-183.72,127.96,-322.06
327711.859000,0.178,-0.589,0.792,-189.28,125.98,-321.12
327711.875000,0.19,-0.513,1.071,-177.95,118.53,-308.85
327711.875000,0.235,-0.441,1.289,-131.5,93.3,-286.36
327711.890000,0.316,-0.333,1.319,-61.46,50.39,-258.46
327711.906000,0.421,-0.22,1.166,6.26,1.13,-228.43
327711.906000,0.57,-0.148,0.918,48.01,-46.48,-205.85
327711.921000,0.644,-0.007,0.679,58.17,-81.85,-193.15
327711.921000,0.764,0.079,0.462,44.31,-100.77,-183.75
327711.937000,0.893,0.14,0.266,12.02,-100.71,-180.58
327711.953000,0.945,0.199,0.169,-82.83,-56.0,-165.59
327711.968000,0.932,0.254,0.239,-107.97,-41.9,-148.72
327711.968000,0.945,0.251,0.405,-106.3,-36.71,-128.09
327711.968000,0.981,0.191,0.575,-86.31,-43.34,-108.34
327712.000000,0.953,0.164,0.661,-55.64,-59.76,-89.05
327712.000000,0.938,0.222,0.522,-28.63,-81.33,-68.45
327712.015000,0.962,0.227,0.389,-16.97,-95.22,-51.52
327712.031000,1.004,0.22,0.23,-18.56,-99.31,-41.32
327712.031000,1.017,0.23,0.068,-36.1,-94.67,-37.26
327712.031000,0.997,0.246,0.019,-70.41,-84.02,-33.91
327712.046000,0.998,0.221,0.139,-104.56,-71.69,-28.29
327712.062000,0.984,0.161,0.308,-118.17,-64.61,-21.67
327712.062000,0.969,0.121,0.403,-110.17,-68.88,-12.48
327712.078000,0.96,0.099,0.388,-85.54,-81.67,-1.04
327712.078000,0.959,0.093,0.231,-62.04,-92.35,11.57
327712.109000,0.978,0.122,0.096,-57.31,-94.97,23.38
327712.109000,0.972,0.127,0.025,-68.3,-89.91,34.33
327712.109000,0.956,0.07,0.027,-86.7,-82.13,45.93
327712.125000,0.923,-0.007,0.08,-103.73,-74.19,55.42
327712.140000,0.851,-0.063,0.133,-111.45,-70.01,60.88
327712.156000,0.816,-0.106,0.125,-111.21,-71.9,65.07
327712.156000,0.754,-0.094,0.037,-112.95,-75.87,66.04
327712.171000,0.683,-0.073,-0.053,-126.44,-84.96,68.82
327712.187000,0.656,-0.083,-0.097,-148.11,-96.74,72.85
327712.187000,0.568,-0.084,-0.191,-167.36,-110.66,74.25
327712.203000,0.489,-0.109,-0.304,-184.82,-123.97,79.07
327712.218000,0.422,-0.154,-0.363,-196.57,-135.11,86.09
327712.218000,0.376,-0.185,-0.434,-199.68,-142.4,94.18
327712.234000,0.374,-0.159,-0.527,-195.65,-140.42,99.4
327712.250000,0.249,-0.121,-0.688,-194.65,-142.31,97.99
327712.250000,0.147,-0.117,-0.701,-197.58,-141.42,98.18
327712.265000,0.262,-0.054,-0.906,-199.22,-163.24,93.6
327712.281000,0.423,0.036,-1.291,-191.14,-157.48,89.3
327712.281000,0.33,-0.134,-1.477,-188.48,-106.45,83.44
327712.296000,0.122,-0.351,-1.317,-210.27,-55.76,50.78
327712.296000,0.264,0.106,-1.299,-201.57,-45.93,32.32
327712.312000,0.441,0.042,-1.624,-115.48,-11.14,54.57
327712.328000,0.299,-0.211,-1.607,-103.67,1.31,38.48
327712.328000,0.326,-0.149,-1.785,-159.95,-64.36,22.03
327712.343000,0.707,-0.078,-2.062,-207.4,-80.9,19.04
327712.343000,0.774,-0.241,-2.3,-230.75,-59.36,17.85
327712.359000,0.705,-0.458,-2.135,-219.7,-7.29,34.24
327712.375000,0.608,-0.59,-1.588,-169.9,47.24,53.87
327712.375000,0.382,-0.568,-1.129,-99.89,62.01,73.7
327712.390000,0.151,-0.51,-0.964,-29.02,48.74,99.95
327712.390000,0.14,-0.523,-0.798,20.72,45.01,131.44
327712.406000,0.264,-0.594,-0.637,47.64,42.73,153.6
327712.421000,0.443,-0.671,-0.572,57.8,34.91,155.8
327712.421000,0.625,-0.701,-0.721,52.89,19.53,133.52
327712.437000,0.674,-0.699,-0.938,38.3,12.7,92.14
327712.453000,0.697,-0.662,-0.964,23.74,24.87,48.68
327712.468000,0.715,-0.557,-0.84,15.78,42.05,8.76
327712.468000,0.674,-0.447,-0.703,15.5,51.39,-23.77
327712.468000,0.666,-0.334,-0.697,13.55,49.1,-45.01
327712.484000,0.661,-0.201,-0.762,-1.4,43.43,-58.57
327712.500000,0.626,-0.17,-0.748,-24.05,41.63,-62.04
327712.515000,0.668,-0.215,-0.653,-35.43,42.76,-57.83
327712.515000,0.708,-0.224,-0.553,-24.66,42.42,-54.35
327712.531000,0.69,-0.183,-0.524,-1.25,37.97,-51.21
327712.546000,0.623,-0.112,-0.523,18.22,30.58,-47.61
327712.546000,0.581,-0.101,-0.393,23.56,19.1,-39.61
327712.562000,0.607,-0.107,-0.305,26.46,-4.76,-30.37
327712.578000,0.743,-0.048,-0.548,28.87,-31.86,-23.47
327712.578000,0.813,0.008,-0.982,14.8,-39.31,-25.15
327712.593000,0.767,-0.028,-1.016,-15.78,-18.65,-23.74
327712.609000,0.794,-0.109,-0.686,-37.45,0.76,-19.35
327712.609000,0.766,-0.165,-0.515,-33.14,3.05,-22.28
327712.609000,0.659,-0.133,-0.529,-17.18,-1.16,-26.25
327712.625000,0.646,-0.101,-0.569,-7.29,-5.25,-22.89
327712.640000,0.689,-0.103,-0.587,-4.36,-8.15,-18.31
327712.640000,0.705,-0.109,-0.621,-4.64,-11.35,-15.56
327712.656000,0.714,-0.126,-0.632,-2.66,-12.67,-10.59
327712.671000,0.801,-0.101,-0.669,1.19,-12.42,-5.8
327712.687000,0.863,-0.106,-0.84,-5.52,-6.16,-9.43
327712.687000,0.808,-0.166,-0.903,-26.34,12.91,-20.26
327712.703000,0.746,-0.215,-0.763,-46.36,27.59,-31.34
327712.703000,0.731,-0.249,-0.526,-50.39,31.95,-39.74
327712.718000,0.697,-0.24,-0.47,-35.34,25.06,-45.63
327712.734000,0.676,-0.187,-0.558,-14.74,18.62,-45.08
327712.734000,0.679,-0.119,-0.623,-6.74,15.26,-40.74
327712.734000,0.709,-0.069,-0.613,-9.49,13.06,-36.62
327712.765000,0.749,-0.066,-0.613,-13.55,11.44,-33.17
327712.765000,0.764,-0.056,-0.665,-15.87,11.66,-33.08
327712.781000,0.784,-0.033,-0.653,-20.97,15.02,-34.79
327712.796000,0.784,-0.087,-0.687,-23.44,18.01,-36.29
327712.796000,0.754,-0.096,-0.675,-23.53,22.1,-38.06
327712.812000,0.71,-0.078,-0.588,-20.45,23.29,-36.07
327712.828000,0.685,-0.067,-0.511,-11.2,18.16,-28.05
327712.843000,0.679,-0.047,-0.491,-0.82,8.82,-17.73
327712.843000,0.671,-0.057,-0.516,6.93,-2.47,-5.95
327712.859000,0.718,-0.069,-0.546,11.9,-12.42,6.16
327712.859000,0.747,-0.103,-0.642,16.24,-19.56,14.47
327712.875000,0.775,-0.15,-0.705,19.65,-19.29,18.62
327712.875000,0.828,-0.139,-0.688,23.74,-12.42,14.77
327712.890000,0.807,-0.134,-0.738,25.76,-4.43,2.9
327712.906000,0.788,-0.13,-0.724,17.79,5.19,-10.01
327712.921000,0.8,-0.099,-0.635,7.45,11.87,-24.23
327712.921000,0.757,-0.065,-0.602,-0.92,12.24,-37.45
327712.937000,0.721,-0.051,-0.592,-7.69,10.59,-44.16
327712.937000,0.725,-0.04,-0.571,-11.63,9.52,-47.03
327712.953000,0.709,-0.014,-0.538,-11.81,10.53,-48.89
327712.953000,0.685,-0.005,-0.52,-9.67,8.61,-47.76
327712.968000,0.716,-0.008,-0.521,-7.45,2.99,-44.16
327712.984000,0.761,-0.014,-0.603,-4.91,-2.93,-40.19
327713.000000,0.785,-0.02,-0.668,-2.93,-2.23,-34.67
327713.000000,0.829,0.002,-0.768,-4.3,0.31,-29.05
327713.015000,0.812,-0.015,-0.842,-13.82,7.32,-24.66
327713.015000,0.772,-0.056,-0.684,-21.61,18.95,-18.4
327713.031000,0.781,-0.094,-0.502,-12.67,22.64,-14.34
327713.031000,0.745,-0.076,-0.457,4.24,17.03,-13.49
327713.046000,0.728,-0.047,-0.523,17.76,7.97,-9.52
327713.062000,0.779,-0.057,-0.594,26.61,0.89,-2.41
327713.078000,0.839,-0.052,-0.657,31.01,-4.24,3.05
327713.078000,0.861,-0.081,-0.786,31.31,-5.8,5.31
327713.078000,0.843,-0.146,-0.827,24.75,0.67,6.5
327713.093000,0.847,-0.178,-0.707,19.9,8.3,6.53
327713.109000,0.864,-0.186,-0.606,27.19,10.13,4.21
327713.125000,0.862,-0.158,-0.633,41.17,8.88,-0.31
327713.125000,0.839,-0.101,-0.72,49.5,9.55,-4.0
327713.140000,0.822,-0.067,-0.723,46.14,14.44,-4.73
327713.140000,0.823,-0.057,-0.637,35.89,19.38,-5.58
327713.156000,0.804,-0.062,-0.587,26.61,22.25,-11.08
327713.171000,0.771,-0.057,-0.528,17.21,26.03,-18.8
327713.187000,0.744,-0.041,-0.473,7.29,24.35,-26.28
327713.187000,0.74,-0.023,-0.43,-1.37,19.41,-31.13
327713.187000,0.755,-0.011,-0.433,-7.05,12.3,-32.96
327713.218000,0.796,-0.005,-0.496,-12.97,6.9,-34.15
327713.218000,0.818,-0.001,-0.6,-22.64,7.23,-37.51
327713.234000,0.799,-0.021,-0.591,-34.85,14.98,-40.83
327713.234000,0.78,-0.039,-0.493,-42.97,18.43,-42.02
327713.234000,0.771,-0.047,-0.435,-40.5,14.86,-39.8
327713.250000,0.75,-0.03,-0.453,-31.98,7.45,-33.42
327713.265000,0.76,-0.011,-0.499,-23.19,-0.24,-21.82
327713.265000,0.769,0.003,-0.542,-15.08,-6.07,-7.87
327713.296000,0.777,0.001,-0.579,-7.02,-8.39,6.56
327713.296000,0.783,-0.038,-0.606,3.39,-7.26,20.26
327713.312000,0.78,-0.079,-0.609,15.5,-4.82,31.4
327713.328000,0.783,-0.119,-0.622,25.27,-4.15,39.95
327713.328000,0.773,-0.163,-0.649,30.46,-5.16,45.99
327713.328000,0.811,-0.184,-0.624,34.21,-5.65,50.11
327713.359000,0.859,-0.205,-0.612,42.63,-7.75,52.06
327713.359000,0.876,-0.193,-0.65,55.12,-11.26,53.1
327713.375000,0.865,-0.152,-0.693,69.55,-13.09,56.37
327713.375000,0.865,-0.12,-0.678,83.44,-14.89,64.79
327713.390000,0.937,-0.132,-0.731,96.01,-15.2,74.98
327713.406000,0.999,-0.157,-0.884,93.63,-6.5,76.02
327713.406000,0.932,-0.176,-0.845,69.15,18.52,65.61
327713.421000,0.855,-0.256,-0.578,42.09,35.98,52.92
327713.437000,0.896,-0.34,-0.39,28.87,32.07,34.21
327713.437000,0.918,-0.336,-0.365,29.51,22.8,12.09
327713.453000,0.889,-0.249,-0.488,31.37,15.26,-5.52
327713.453000,0.889,-0.182,-0.598,24.02,14.62,-12.67
327713.468000,0.902,-0.193,-0.621,12.21,17.27,-13.37
327713.484000,0.888,-0.241,-0.65,2.5,15.84,-14.1
327713.484000,0.876,-0.264,-0.716,0.82,10.01,-12.51
327713.500000,0.874,-0.305,-0.86,11.84,5.71,-5.19
327713.515000,0.894,-0.348,-0.955,28.53,10.5,9.89
327713.515000,0.943,-0.349,-0.941,48.52,19.2,29.02
327713.531000,0.986,-0.366,-1.021,86.09,38.54,54.51
327713.546000,0.984,-0.383,-1.15,76.54,63.57,52.77
327713.546000,0.882,-0.39,-1.037,64.15,78.28,47.27
327713.562000,0.806,-0.464,-0.716,61.74,75.56,34.58
327713.578000,0.82,-0.535,-0.461,65.43,61.71,15.72
327713.578000,0.823,-0.506,-0.392,65.19,43.86,-3.75
327713.593000,0.897,-0.374,-0.671,54.35,31.28,-17.91
327713.593000,1.035,-0.385,-0.769,34.06,33.39,-31.13
327713.609000,1.094,-0.372,-0.845,13.34,40.28,-48.8
327713.625000,1.114,-0.35,-0.799,-0.92,54.08,-62.69
327713.625000,1.181,-0.3,-0.69,-3.23,63.63,-69.15
327713.640000,1.179,-0.203,-0.69,9.09,68.15,-70.5
327713.656000,1.132,-0.099,-0.71,26.22,74.92,-60.79
327713.656000,1.127,-0.033,-0.722,39.03,77.97,-40.04
327713.671000,1.056,-0.023,-0.721,48.71,81.7,-13.82
327713.687000,0.994,-0.081,-0.581,57.22,90.33,17.15
327713.687000,0.997,-0.177,-0.393,69.98,94.91,43.55
327713.703000,0.972,-0.282,-0.351,84.35,94.76,57.56
327713.718000,0.931,-0.364,-0.366,88.14,96.44,57.37
327713.718000,0.916,-0.389,-0.318,78.83,98.85,46.24
327713.718000,0.898,-0.377,-0.266,64.24,100.31,26.09
327713.734000,0.802,-0.353,-0.255,48.8,103.09,2.01
327713.750000,0.678,-0.31,-0.203,33.51,109.29,-16.54
327713.750000,0.595,-0.262,-0.087,23.22,115.3,-27.53
327713.765000,0.528,-0.233,0.057,17.49,117.95,-33.27
327713.781000,0.507,-0.188,0.201,14.44,112.28,-35.34
327713.796000,0.53,-0.139,0.277,14.47,97.96,-34.36
327713.796000,0.551,-0.112,0.234,14.37,81.24,-31.28
327713.796000,0.548,-0.107,0.149,8.55,69.4,-26.98
327713.812000,0.562,-0.103,0.139,-0.15,63.05,-21.27
327713.828000,0.581,-0.13,0.208,-5.95,58.32,-15.23
327713.828000,0.604,-0.154,0.245,-4.76,49.78,-11.14
327713.843000,0.646,-0.138,0.202,0.15,36.5,-9.09
327713.859000,0.668,-0.149,0.068,2.35,22.06,-7.14
327713.875000,0.684,-0.176,-0.037,-1.95,14.1,-3.02
327713.875000,0.696,-0.183,-0.074,-6.04,10.8,3.23
327713.890000,0.713,-0.215,-0.105,-3.3,12.82,10.86
327713.890000,0.746,-0.23,-0.097,2.75,18.52,18.62
327713.906000,0.795,-0.241,-0.094,7.6,22.1,22.86
327713.906000,0.86,-0.243,-0.103,7.08,24.6,20.94
327713.921000,0.893,-0.235,-0.157,0.15,25.73,12.79
327713.937000,0.86,-0.251,-0.227,-12.76,32.32,2.04
327713.937000,0.806,-0.26,-0.176,-28.81,44.31,-4.85
327713.953000,0.79,-0.292,0.002,-39.37,53.47,-7.2
327713.968000,0.83,-0.313,0.173,-35.86,52.03,-9.83
327713.984000,0.865,-0.289,0.141,-20.63,41.93,-15.26
327713.984000,0.809,-0.214,0.024,-10.22,33.94,-18.65
327713.984000,0.781,-0.2,0.032,-7.63,32.62,-13.18
327714.015000,0.83,-0.255,0.099,-5.4,31.46,-6.32
327714.015000,0.851,-0.267,0.129,-2.78,29.94,-6.13
327714.031000,0.848,-0.26,0.12,-3.11,27.22,-10.01
327714.046000,0.877,-0.266,0.119,-6.84,24.05,-16.24
327714.046000,0.902,-0.251,0.123,-10.01,20.14,-24.78
327714.062000,0.889,-0.229,0.104,-6.07,18.22,-31.74
327714.078000,0.882,-0.215,0.073,1.77,19.23,-34.21
327714.078000,0.877,-0.194,0.057,9.22,21.7,-33.6
327714.093000,0.879,-0.156,0.073,11.47,23.07,-31.13
327714.093000,0.917,-0.124,0.065,7.39,20.45,-28.05
327714.109000,0.911,-0.123,0.04,-0.49,18.25,-24.08
327714.109000,0.881,-0.143,0.074,-6.81,18.65,-17.52
327714.125000,0.866,-0.169,0.162,-5.34,19.1,-9.31
327714.140000,0.88,-0.185,0.207,3.42,15.56,-2.41
327714.156000,0.923,-0.178,0.182,11.72,9.19,0.73
327714.156000,0.96,-0.158,0.113,13.28,3.69,0.18
327714.171000,0.962,-0.141,0.042,7.97,1.59,-2.23
327714.187000,0.932,-0.146,-0.008,0.0,3.23,-4.18
327714.187000,0.885,-0.168,0.005,-6.53,6.93,-3.14
327714.203000,0.859,-0.2,0.089,-7.26,9.55,1.1
327714.203000,0.873,-0.224,0.143,-0.61,7.54,4.55
327714.218000,0.892,-0.203,0.107,7.2,0.79,5.01
327714.234000,0.917,-0.184,0.021,10.19,-4.39,4.64
327714.234000,0.938,-0.176,-0.057,4.73,-3.42,2.78
327714.250000,0.938,-0.183,-0.083,-8.3,2.04,-1.62
327714.250000,0.925,-0.214,-0.031,-22.22,7.87,-8.15
327714.265000,0.907,-0.245,0.059,-29.66,10.56,-14.83
327714.265000,0.89,-0.244,0.11,-28.72,8.55,-21.42
327714.296000,0.9,-0.217,0.09,-23.22,3.91,-26.15
327714.312000,0.917,-0.173,0.046,-19.75,0.52,-28.2
327714.312000,0.953,-0.139,0.016,-22.61,-1.13,-28.66
327714.312000,0.978,-0.136,-0.02,-29.05,-1.62,-28.29
327714.328000,0.978,-0.153,-0.073,-37.97,-0.21,-28.32
327714.328000,0.962,-0.185,-0.058,-48.49,4.0,-28.63
327714.343000,0.967,-0.223,0.009,-53.77,6.87,-29.15
327714.359000,0.976,-0.24,0.052,-49.26,6.9,-30.15
327714.375000,0.976,-0.227,0.043,-38.45,6.23,-31.43
327714.375000,0.956,-0.197,-0.008,-30.24,5.77,-31.19
327714.375000,0.948,-0.179,0.001,-29.54,7.05,-28.99
327714.406000,0.936,-0.164,0.087,-28.41,7.78,-24.69
327714.406000,0.93,-0.132,0.165,-17.24,3.02,-17.24
327714.421000,0.951,-0.114,0.174,-1.56,-5.92,-6.84
327714.437000,0.936,-0.124,0.079,7.9,-15.11,2.78
327714.437000,0.941,-0.143,0.011,10.28,-19.29,10.53
327714.453000,0.94,-0.159,-0.028,9.0,-20.6,14.19
327714.468000,0.914,-0.158,-0.082,5.95,-19.04,16.33
327714.468000,0.918,-0.18,-0.098,1.13,-13.46,19.62
327714.484000,0.908,-0.233,-0.083,-6.78,-6.99,20.87
327714.484000,0.902,-0.3,0.012,-15.69,-1.83,18.92
327714.500000,0.987,-0.32,0.181,-18.07,-3.51,11.66
327714.515000,1.016,-0.301,0.177,-10.01,-13.95,-1.86
327714.515000,0.985,-0.223,0.013,-3.88,-23.22,-14.74
327714.531000,1.002,-0.139,-0.084,-7.02,-24.41,-20.94
327714.546000,0.996,-0.121,-0.11,-13.28,-20.84,-21.36
327714.546000,0.987,-0.121,-0.079,-16.97,-15.81,-18.4
327714.562000,0.975,-0.117,0.009,-14.65,-11.96,-12.09
327714.562000,0.993,-0.118,0.064,-6.53,-13.03,-4.24
327714.578000,1.013,-0.114,0.026,-0.18,-17.03,1.92
327714.593000,1.016,-0.133,-0.044,-3.33,-19.65,4.73
327714.593000,1.055,-0.175,-0.068,-12.15,-19.93,3.2
327714.609000,1.074,-0.192,-0.064,-18.46,-18.95,-3.6
327714.625000,1.061,-0.176,-0.085,-17.7,-16.05,-10.35
327714.625000,1.05,-0.156,-0.105,-11.9,-9.4,-10.9
327714.640000,1.022,-0.14,-0.09,-8.48,-1.13,-7.02
327714.656000,0.997,-0.154,-0.033,-9.4,3.42,-0.85
327714.656000,0.989,-0.181,0.065,-9.64,2.44,3.97
327714.671000,0.987,-0.198,0.096,-4.58,-3.72,6.38
327714.671000,0.988,-0.184,0.026,1.68,-10.77,7.02
327714.687000,0.983,-0.176,-0.063,2.23,-12.3,8.09
327714.687000,0.983,-0.203,-0.101,-3.91,-8.42,8.64
327714.703000,0.979,-0.249,-0.053,-11.2,-1.74,7.39
327714.718000,0.955,-0.275,0.044,-12.91,3.05,3.94
327714.718000,0.927,-0.274,0.103,-7.23,2.44,0.18
327714.734000,0.903,-0.244,0.089,1.92,-2.56,-2.75
327714.734000,0.903,-0.204,0.022,7.08,-7.84,-4.46
327714.750000,0.898,-0.185,-0.036,4.24,-10.65,-5.04
327714.765000,0.925,-0.206,-0.043,-2.69,-10.41,-4.61
327714.781000,0.936,-0.237,-0.02,-7.23,-8.06,-6.35
327714.781000,0.941,-0.249,0.035,-6.78,-5.13,-9.61
327714.781000,0.954,-0.25,0.07,-2.53,-5.77,-14.07
327714.812000,0.977,-0.237,0.032,1.92,-9.06,-20.72
327714.828000,0.976,-0.183,-0.031,5.07,-10.56,-27.92
327714.828000,0.98,-0.127,-0.103,7.75,-8.42,-33.11
327714.843000,0.976,-0.089,-0.121,4.64,-3.51,-33.81
327714.859000,0.973,-0.085,-0.067,-1.71,0.98,-32.32
327714.859000,0.975,-0.096,0.04,-5.01,2.26,-29.27
327714.875000,0.98,-0.087,0.131,0.55,-1.34,-25.18
327714.875000,0.98,-0.079,0.131,12.82,-8.3,-20.97
327714.890000,0.992,-0.06,0.045,23.19,-13.98,-17.85
327714.906000,0.986,-0.039,-0.048,25.15,-13.21,-16.54
327714.906000,0.962,-0.049,-0.057,20.17,-6.47,-15.14
327714.921000,0.938,-0.064,0.042,15.29,-0.24,-13.52
327714.937000,0.912,-0.08,0.14,16.69,1.43,-11.93
327714.937000,0.87,-0.073,0.208,20.11,-1.86,-11.02
327714.953000,0.836,-0.065,0.247,21.88,-9.28,-9.86
327714.953000,0.822,-0.07,0.241,23.32,-19.35,-7.26
327714.968000,0.849,-0.051,0.199,23.99,-26.15,-4.39
327714.984000,0.835,-0.028,0.138,22.28,-26.22,-1.92
327714.984000,0.787,-0.044,0.11,17.27,-21.73,2.72
327715.000000,0.76,-0.062,0.185,9.83,-20.54,8.76
327715.015000,0.756,-0.087,0.276,6.59,-25.85,13.12
327715.015000,0.749,-0.09,0.306,7.42,-36.01,14.37
327715.031000,0.755,-0.066,0.288,8.27,-48.13,12.76
327715.031000,0.769,-0.028,0.214,7.02,-58.02,9.46
327715.046000,0.749,-0.012,0.099,4.61,-61.65,7.05
327715.062000,0.726,-0.006,0.11,1.83,-59.33,10.8
327715.062000,0.746,0.007,0.208,4.43,-60.85,18.71
327715.078000,0.76,0.06,0.267,12.63,-67.6,27.01
327715.093000,0.746,0.15,0.303,23.22,-73.12,34.06
327715.093000,0.71,0.236,0.347,31.04,-76.51,42.85
327715.109000,0.697,0.301,0.405,28.35,-85.24,53.96
327715.109000,0.73,0.326,0.375,-16.57,-140.84,66.47
327715.125000,0.763,0.312,0.173,-52.74,-171.12,64.42
327715.140000,0.763,0.287,-0.115,-89.63,-192.14,59.76
327715.140000,0.799,0.251,-0.367,-125.22,-204.96,49.9
327715.156000,0.891,0.211,-0.595,-155.31,-207.5,31.89
327715.171000,0.921,0.154,-0.946,-182.56,-189.92,12.54
327715.171000,0.888,-0.001,-1.326,-207.89,-158.18,0.55
327715.187000,1.004,-0.168,-1.296,-217.66,-131.5,-6.07
327715.203000,1.092,-0.32,-1.334,-206.4,-115.09,-12.63
327715.218000,1.077,-0.391,-1.363,-180.85,-97.42,-14.19
327715.218000,1.07,-0.409,-1.299,-143.56,-74.34,-3.42
327715.234000,1.059,-0.422,-1.259,-90.0,-46.33,17.82
327715.250000,0.951,-0.399,-1.171,-28.57,-12.6,45.38
327715.250000,0.884,-0.369,-0.948,31.34,20.26,78.19
327715.265000,0.903,-0.377,-0.685,84.08,40.44,107.67
327715.265000,0.885,-0.411,-0.555,125.46,44.22,125.06
327715.281000,0.868,-0.41,-0.546,149.57,37.78,128.54
327715.296000,0.875,-0.357,-0.58,152.87,27.53,118.14
327715.296000,0.878,-0.307,-0.625,139.26,18.49,96.9
327715.312000,0.917,-0.306,-0.696,115.88,15.63,67.23
327715.328000,0.927,-0.276,-0.744,84.32,20.66,30.76
327715.328000,0.862,-0.238,-0.707,53.29,31.71,-3.02
327715.343000,0.842,-0.234,-0.566,31.68,43.67,-27.65
327715.343000,0.844,-0.237,-0.432,24.11,49.75,-45.84
327715.359000,0.829,-0.233,-0.364,25.33,50.45,-58.02
327715.375000,0.829,-0.182,-0.418,22.68,46.75,-66.93
327715.375000,0.795,-0.113,-0.523,10.1,45.32,-73.12
327715.390000,0.757,-0.118,-0.52,-8.18,47.98,-72.39
327715.390000,0.757,-0.167,-0.382,-20.84,46.97,-66.81
327715.406000,0.74,-0.192,-0.267,-18.19,36.71,-59.24
327715.421000,0.709,-0.199,-0.27,-0.79,19.1,-47.0
327715.437000,0.74,-0.203,-0.359,21.82,3.11,-29.76
327715.437000,0.822,-0.204,-0.487,39.92,-2.59,-13.98
327715.453000,0.877,-0.224,-0.61,47.58,3.45,-4.18
327715.453000,0.934,-0.273,-0.582,42.7,16.33,-1.07
327715.468000,0.981,-0.315,-0.471,31.28,24.2,-6.65
327715.484000,0.965,-0.313,-0.373,22.0,25.24,-18.37
327715.484000,0.94,-0.297,-0.348,19.04,20.6,-29.42
327715.500000,0.899,-0.277,-0.421,21.45,14.86,-36.29
327715.515000,0.852,-0.219,-0.498,26.34,13.95,-34.7
327715.515000,0.859,-0.2,-0.51,32.41,18.83,-23.29
327715.531000,0.885,-0.227,-0.453,40.01,25.76,-8.79
327715.546000,0.91,-0.251,-0.376,48.01,29.39,3.3
327715.546000,0.927,-0.274,-0.37,54.6,27.53,10.44
327715.546000,0.919,-0.305,-0.404,54.2,24.14,13.37
327715.562000,0.925,-0.315,-0.388,48.28,21.73,13.03
327715.578000,0.936,-0.329,-0.404,46.45,19.84,10.28
327715.578000,0.931,-0.314,-0.453,46.3,21.39,6.47
327715.593000,0.937,-0.297,-0.414,44.77,28.63,5.01
327715.609000,0.931,-0.279,-0.331,44.92,34.33,3.94
327715.609000,0.918,-0.262,-0.293,47.06,35.34,2.69
327715.625000,0.895,-0.236,-0.266,46.11,32.23,1.65
327715.625000,0.875,-0.221,-0.273,44.92,26.09,2.14
327715.640000,0.855,-0.195,-0.281,45.26,19.59,5.16
327715.656000,0.841,-0.185,-0.293,48.46,15.47,11.69
327715.656000,0.857,-0.2,-0.261,52.61,14.68,21.36
327715.671000,0.901,-0.23,-0.199,56.12,14.47,29.54
327715.687000,0.929,-0.264,-0.218,58.35,12.6,31.71
327715.703000,0.941,-0.286,-0.251,55.18,12.63,28.29
327715.718000,0.929,-0.286,-0.251,46.02,13.31,21.06
327715.718000,0.924,-0.287,-0.239,38.15,13.34,13.43
327715.734000,0.924,-0.275,-0.205,34.49,12.48,6.87
327715.734000,0.91,-0.253,-0.184,35.74,11.72,3.48
327715.750000,0.909,-0.228,-0.155,37.29,11.38,3.75
327715.765000,0.906,-0.213,-0.129,36.26,8.88,5.13
327715.781000,0.912,-0.207,-0.127,33.57,3.97,6.47
327715.781000,0.912,-0.21,-0.149,29.94,-1.5,7.29
327715.796000,0.888,-0.222,-0.191,24.93,-5.52,7.48
327715.796000,0.857,-0.24,-0.201,19.01,-6.35,8.42
327715.812000,0.822,-0.261,-0.15,14.98,-4.94,9.92
327715.828000,0.797,-0.289,-0.08,16.27,-4.7,11.99
327715.828000,0.787,-0.302,-0.038,22.22,-7.72,13.21
327715.843000,0.787,-0.296,-0.017,26.83,-13.0,13.64
327715.859000,0.788,-0.295,-0.001,26.73,-19.41,13.34
327715.859000,0.805,-0.295,-0.02,23.29,-25.82,10.99
327715.875000,0.784,-0.297,-0.079,16.27,-29.45,6.84
327715.875000,0.728,-0.305,-0.097,6.38,-28.96,3.05
327715.890000,0.677,-0.305,-0.021,-2.26,-28.32,0.89
327715.906000,0.651,-0.316,0.061,-4.85,-31.59,0.27
327715.906000,0.632,-0.316,0.08,-2.78,-37.63,-0.21
327715.921000,0.626,-0.293,0.085,-2.32,-43.28,-0.73
327715.921000,0.641,-0.266,0.074,-6.38,-47.61,-1.5
327715.937000,0.635,-0.254,0.102,-14.8,-47.94,-3.23
327715.953000,0.598,-0.23,0.192,-27.47,-49.9,-8.06
327715.953000,0.624,-0.219,0.238,-38.06,-60.12,-14.59
327715.968000,0.7,-0.176,0.16,-43.95,-77.27,-24.11
327715.984000,0.748,-0.064,0.015,-52.8,-94.91,-34.03
327715.984000,0.76,0.041,-0.181,-67.02,-107.91,-38.58
327716.000000,0.734,0.112,-0.333,-84.35,-109.35,-35.92
327716.015000,0.642,0.17,-0.328,-101.23,-99.7,-27.01
327716.015000,0.518,0.183,-0.31,-108.34,-90.49,-13.61
327716.031000,0.375,0.15,-0.329,-113.68,-87.56,0.73
327716.046000,0.289,0.109,-0.306,-129.06,-95.77,12.45
327716.046000,0.466,0.037,-0.31,-147.22,-122.1,16.97
327716.062000,0.747,0.009,-0.537,-160.95,-164.71,8.06
327716.078000,0.762,0.045,-0.96,-170.69,-198.1,-5.83
327716.078000,0.691,0.08,-1.341,-179.75,-207.4,-7.14
327716.093000,0.724,0.009,-1.681,-174.14,-187.9,12.45
327716.093000,0.712,-0.158,-1.843,-149.39,-137.79,48.52
327716.109000,0.693,-0.29,-1.53,-114.2,-74.1,92.84
327716.125000,0.758,-0.431,-1.035,-60.43,-32.41,133.18
327716.125000,0.773,-0.545,-0.756,4.09,-24.23,159.49
327716.140000,0.701,-0.529,-0.69,54.84,-33.27,172.49
327716.140000,0.614,-0.47,-0.678,84.11,-39.98,180.21
327716.156000,0.629,-0.516,-0.692,95.77,-43.49,184.61
327716.171000,0.741,-0.641,-0.788,91.43,-45.87,176.21
327716.171000,0.801,-0.704,-0.869,67.9,-46.14,148.29
327716.187000,0.772,-0.704,-0.87,36.65,-44.43,110.9
327716.203000,0.735,-0.725,-0.794,18.37,-39.58,72.18
327716.203000,0.706,-0.762,-0.72,17.61,-35.83,34.33
327716.218000,0.684,-0.735,-0.686,27.1,-34.97,-0.06
327716.234000,0.644,-0.604,-0.672,37.75,-39.83,-27.99
327716.250000,0.569,-0.479,-0.729,49.35,-45.66,-44.77
327716.250000,0.527,-0.397,-0.773,58.32,-46.91,-50.33
327716.265000,0.622,-0.329,-0.747,61.95,-43.03,-51.55
327716.265000,0.704,-0.287,-0.876,57.16,-40.28,-57.41
327716.281000,0.645,-0.249,-1.094,35.95,-32.47,-67.93
327716.296000,0.597,-0.208,-1.046,2.44,-15.44,-74.68
327716.312000,0.629,-0.258,-0.794,-16.42,-0.46,-75.9
327716.312000,0.648,-0.307,-0.605,-9.06,2.17,-77.49
327716.328000,0.604,-0.279,-0.599,12.3,-4.82,-77.33
327716.328000,0.559,-0.246,-0.728,30.61,-13.98,-69.25
327716.328000,0.551,-0.271,-0.856,38.79,-17.98,-54.38
327716.343000,0.65,-0.322,-0.816,41.69,-13.09,-37.78
327716.343000,0.826,-0.371,-0.728,47.06,-6.1,-30.24
327716.359000,0.865,-0.395,-0.822,48.65,-4.79,-36.29
327716.375000,0.865,-0.366,-0.924,41.57,-2.96,-45.78
327716.375000,0.921,-0.363,-0.948,33.27,-0.73,-51.39
327716.390000,0.967,-0.403,-1.069,35.34,0.43,-53.71
327716.421000,0.908,-0.392,-1.297,44.74,7.6,-51.55
327716.421000,0.857,-0.355,-1.364,53.19,29.85,-39.64
327716.437000,0.831,-0.398,-1.219,61.19,58.53,-21.97
327716.437000,0.806,-0.444,-0.945,73.46,81.64,-7.05
327716.453000,0.823,-0.467,-0.707,92.47,89.33,1.83
327716.453000,0.869,-0.49,-0.661,116.4,85.42,2.32
327716.468000,0.918,-0.464,-0.652,131.87,83.93,-3.36
327716.484000,0.948,-0.422,-0.714,132.88,83.62,-13.06
327716.484000,0.923,-0.384,-0.857,115.88,85.06,-25.42
327716.500000,0.918,-0.339,-0.774,84.23,96.26,-34.61
327716.515000,0.917,-0.361,-0.606,61.83,104.95,-39.98
327716.531000,0.943,-0.345,-0.492,54.72,105.38,-45.47
327716.531000,0.909,-0.287,-0.478,56.15,99.83,-49.5
327716.546000,0.859,-0.254,-0.497,60.61,96.13,-45.53
327716.546000,0.841,-0.219,-0.427,65.58,96.32,-34.09
327716.562000,0.842,-0.184,-0.337,69.83,92.47,-19.87
327716.562000,0.888,-0.183,-0.276,72.39,83.22,-6.5
327716.578000,0.895,-0.179,-0.323,72.42,69.31,1.46
327716.593000,0.868,-0.196,-0.455,62.9,54.54,8.79
327716.593000,0.869,-0.283,-0.522,46.82,49.01,18.16
327716.609000,0.873,-0.377,-0.468,36.29,55.24,24.32
327716.625000,0.844,-0.454,-0.378,36.1,60.61,28.72
327716.625000,0.856,-0.504,-0.331,46.14,60.82,31.43
327716.640000,0.845,-0.51,-0.334,59.33,60.03,28.02
327716.640000,0.825,-0.498,-0.382,63.88,53.22,22.25
327716.671000,0.846,-0.493,-0.435,55.3,45.78,14.5
327716.671000,0.847,-0.515,-0.441,45.11,46.63,4.97
327716.687000,0.816,-0.52,-0.45,39.64,44.65,-1.62
327716.687000,0.835,-0.505,-0.506,39.8,41.57,-2.96
327716.703000,0.837,-0.469,-0.499,43.76,48.37,-0.58
327716.703000,0.796,-0.456,-0.392,64.24,69.31,14.37
327716.718000,0.806,-0.473,-0.249,74.86,67.42,16.82
327716.734000,0.801,-0.482,-0.183,78.95,60.52,15.2
327716.734000,0.802,-0.468,-0.201,70.47,54.41,8.85
327716.750000,0.83,-0.464,-0.254,50.54,52.49,-2.59
327716.765000,0.797,-0.47,-0.357,29.11,60.06,-10.93
327716.781000,0.756,-0.436,-0.075,22.95,69.92,-14.47
327716.781000,0.762,-0.426,0.081,37.14,73.7,-14.92
327716.796000,0.746,-0.374,0.116,53.22,70.53,-15.26
327716.796000,0.698,-0.306,0.085,56.28,62.11,-14.59
327716.812000,0.666,-0.311,0.054,45.41,51.55,-11.26
327716.812000,0.681,-0.365,0.056,29.88,41.2,-8.09
327716.828000,0.695,-0.408,0.058,18.98,31.71,-6.87
327716.843000,0.706,-0.429,0.078,18.01,27.25,-6.99
327716.843000,0.721,-0.415,0.085,24.11,25.94,-8.03
327716.859000,0.735,-0.412,0.051,32.62,27.07,-8.82
327716.859000,0.777,-0.423,0.076,32.69,32.35,-10.56
327716.875000,0.784,-0.421,0.143,25.15,36.32,-15.75
327716.890000,0.767,-0.398,0.222,13.46,35.52,-23.41
327716.906000,0.743,-0.35,0.287,0.55,28.66,-31.53
327716.906000,0.733,-0.317,0.348,-9.03,18.95,-36.99
327716.921000,0.74,-0.3,0.361,-13.09,6.93,-40.68
327716.921000,0.753,-0.254,0.362,-13.67,-1.74,-40.89
327716.937000,0.786,-0.206,0.34,-9.52,-2.69,-36.44
327716.937000,0.819,-0.171,0.232,-7.45,0.64,-31.53
327716.953000,0.803,-0.14,0.157,-20.81,6.5,-26.83
327716.968000,0.769,-0.126,0.292,-43.55,9.67,-20.33
327716.984000,0.779,-0.2,0.49,-54.08,3.78,-13.7
327716.984000,0.782,-0.262,0.534,-50.97,-12.94,-12.33
327717.000000,0.755,-0.223,0.45,-45.08,-31.53,-13.86
327717.015000,0.749,-0.155,0.335,-43.82,-45.11,-11.96
327717.015000,0.757,-0.173,0.167,-46.88,-53.01,-6.2
327717.031000,0.8,-0.214,0.041,-57.99,-52.89,-1.22
327717.046000,0.787,-0.231,-0.006,-72.42,-48.62,0.34
327717.046000,0.81,-0.283,0.038,-81.42,-45.17,1.04
327717.062000,0.874,-0.345,0.061,-83.99,-48.04,-4.64
327717.078000,0.902,-0.328,0.025,-80.14,-51.67,-15.05
327717.078000,0.886,-0.233,-0.027,-73.89,-50.02,-23.13
327717.093000,0.868,-0.159,-0.07,-71.96,-44.04,-23.56
327717.109000,0.816,-0.148,-0.074,-75.53,-37.54,-17.85
327717.109000,0.765,-0.175,0.006,-81.21,-34.36,-7.63
327717.125000,0.71,-0.213,0.017,-84.78,-42.63,2.96
327717.125000,0.696,-0.281,-0.037,-85.57,-54.32,12.57
327717.140000,0.752,-0.327,-0.058,-79.53,-61.49,19.93
327717.156000,0.859,-0.33,-0.098,-64.73,-63.75,22.92
327717.156000,0.947,-0.263,-0.139,-53.01,-59.97,21.7
327717.171000,0.959,-0.189,-0.166,-53.29,-52.98,18.34
327717.187000,0.916,-0.141,-0.166,-72.05,-49.04,13.64
327717.187000,0.81,-0.148,-0.182,-101.63,-50.84,9.95
327717.203000,0.721,-0.207,-0.123,-125.68,-51.42,11.96
327717.218000,0.695,-0.243,0.056,-130.89,-56.15,19.78
327717.218000,0.705,-0.217,0.049,-118.75,-76.45,29.91
327717.234000,0.643,-0.183,-0.14,-104.28,-96.47,44.37
327717.234000,0.627,-0.161,-0.223,-101.72,-106.88,62.17
327717.250000,0.527,-0.162,-0.249,-111.21,-117.83,74.68
327717.250000,0.427,-0.182,-0.33,-127.26,-137.39,81.7
327717.265000,0.496,-0.186,-0.577,-144.9,-162.21,83.13
327717.281000,0.639,-0.179,-1.023,-165.11,-177.92,76.57
327717.281000,0.685,-0.169,-1.483,-200.42,-173.01,59.02
327717.296000,0.697,-0.209,-1.664,-241.22,-150.88,45.23
327717.312000,0.824,-0.351,-1.569,-263.83,-126.53,34.15
327717.328000,0.858,-0.324,-1.637,-256.6,-108.37,18.59
327717.328000,0.715,-0.336,-1.761,-232.09,-80.69,12.6
327717.328000,0.714,-0.436,-1.6,-213.84,-51.15,18.89
327717.343000,0.729,-0.556,-1.475,-190.1,-30.49,25.94
327717.359000,0.626,-0.611,-1.341,-155.67,-11.02,36.56
327717.359000,0.565,-0.633,-1.119,-111.24,7.08,54.57
327717.375000,0.543,-0.67,-0.857,-63.05,23.29,70.31
327717.390000,0.55,-0.709,-0.593,-23.19,30.27,77.24
327717.390000,0.547,-0.712,-0.53,4.58,17.15,71.23
327717.406000,0.532,-0.665,-0.602,14.47,-1.13,56.34
327717.421000,0.554,-0.679,-0.669,11.05,-11.05,40.86
327717.421000,0.621,-0.723,-0.691,3.45,-13.64,21.76
327717.437000,0.667,-0.707,-0.689,2.9,-12.79,0.18
327717.437000,0.723,-0.59,-0.705,14.4,-7.17,-21.0
327717.453000,0.743,-0.456,-0.797,29.36,3.48,-40.93
327717.468000,0.69,-0.34,-0.831,32.59,17.33,-58.08
327717.484000,0.669,-0.247,-0.688,28.05,29.45,-69.34
327717.484000,0.637,-0.209,-0.582,29.88,31.46,-77.43
327717.500000,0.641,-0.141,-0.516,40.16,28.6,-79.44
327717.515000,0.723,-0.056,-0.598,49.65,22.4,-77.27
327717.515000,0.744,0.085,-0.774,38.27,17.3,-77.39
327717.531000,0.716,0.158,-0.752,10.83,20.57,-74.8
327717.546000,0.754,0.083,-0.559,-13.73,23.5,-68.42
327717.546000,0.774,0.001,-0.499,-22.8,16.33,-65.03
327717.562000,0.756,-0.075,-0.55,-21.58,7.69,-60.98
327717.578000,0.804,-0.126,-0.64,-21.36,-0.09,-57.44
327717.578000,0.844,-0.13,-0.756,-19.62,-3.51,-53.16
327717.593000,0.843,-0.138,-0.861,-15.72,0.67,-45.59
327717.593000,0.832,-0.167,-0.779,-12.67,8.36,-34.03
327717.609000,0.842,-0.198,-0.646,-1.07,10.25,-22.74
327717.625000,0.795,-0.24,-0.74,20.75,7.14,-15.81
327717.625000,0.782,-0.234,-0.814,32.99,10.32,-11.51
327717.640000,0.812,-0.218,-0.822,31.8,15.11,-11.35
327717.656000,0.827,-0.222,-0.763,24.6,19.14,-14.4
327717.656000,0.803,-0.26,-0.673,25.36,21.42,-16.94
327717.671000,0.806,-0.233,-0.597,37.2,19.47,-18.62
327717.687000,0.761,-0.175,-0.595,53.29,17.73,-21.39
327717.687000,0.754,-0.161,-0.693,57.53,18.28,-27.62
327717.703000,0.772,-0.092,-0.787,41.87,21.39,-40.99
327717.703000,0.747,-0.08,-0.758,18.92,29.73,-53.62
327717.718000,0.739,-0.122,-0.588,8.09,38.88,-59.48
327717.718000,0.72,-0.092,-0.472,12.79,38.91,-60.73
327717.734000,0.668,-0.03,-0.561,17.64,31.56,-57.86
327717.750000,0.681,-0.0,-0.606,6.13,27.65,-50.23
327717.765000,0.681,-0.052,-0.514,-7.75,25.88,-43.55
327717.765000,0.683,-0.068,-0.395,-9.25,21.49,-41.14
327717.781000,0.68,-0.056,-0.425,1.77,13.25,-40.35
327717.796000,0.705,-0.048,-0.535,12.15,7.35,-38.21
327717.796000,0.775,-0.037,-0.612,11.93,4.88,-36.35
327717.796000,0.848,0.012,-0.708,6.41,5.74,-34.3
327717.812000,0.836,0.012,-0.73,3.02,15.96,-28.41
327717.828000,0.828,0.021,-0.613,4.3,28.78,-18.43
327717.843000,0.886,0.018,-0.493,13.61,46.51,-9.46
327717.843000,0.717,-0.059,-0.396,33.2,61.62,-6.2
327717.859000,0.53,-0.035,-0.557,43.76,25.39,5.25
327717.875000,0.777,-0.029,-0.558,40.44,1.25,25.33
327717.875000,0.913,-0.099,-0.574,42.91,2.17,26.03
327717.890000,0.956,-0.094,-0.689,49.13,21.79,14.59
327717.890000,0.898,-0.068,-0.579,52.34,54.93,1.95
327717.906000,0.808,-0.115,-0.486,54.11,62.53,-5.92
327717.921000,0.729,-0.17,-0.51,57.22,47.85,-8.18
327717.937000,0.695,-0.11,-0.563,57.19,27.19,-3.14
327717.937000,0.827,-0.077,-0.579,52.37,21.97,3.6
327717.937000,0.782,-0.125,-0.541,44.86,25.82,1.16
327717.968000,0.712,-0.118,-0.459,38.82,22.03,0.79
327717.968000,0.792,-0.075,-0.439,40.38,17.18,4.3
327717.984000,0.869,-0.055,-0.498,44.89,19.38,4.33
327717.984000,0.893,-0.049,-0.499,48.22,32.5,1.74
327718.000000,0.815,-0.06,-0.456,51.55,38.24,1.1
327718.015000,0.783,-0.148,-0.416,58.57,35.37,8.0
327718.015000,0.8,-0.205,-0.418,69.09,28.02,15.44
327718.031000,0.829,-0.162,-0.573,72.15,17.09,19.2
327718.046000,0.803,-0.148,-0.625,57.22,18.89,20.57
327718.046000,0.779,-0.186,-0.492,38.21,15.17,25.15
327718.062000,0.914,-0.238,-0.428,36.77,10.1,29.73
327718.078000,0.978,-0.237,-0.575,45.2,11.72,23.68
327718.078000,0.939,-0.219,-0.653,42.24,26.67,13.46
327718.093000,0.842,-0.257,-0.567,30.49,33.6,8.42
327718.109000,0.843,-0.274,-0.421,24.32,30.27,7.9
327718.109000,0.782,-0.261,-0.378,27.1,19.99,6.84
327718.125000,0.76,-0.25,-0.422,32.81,10.32,10.35
327718.125000,0.8,-0.296,-0.476,43.03,8.64,15.17
327718.140000,0.9,-0.264,-0.521,56.18,14.19,15.44
327718.156000,0.92,-0.256,-0.602,58.81,22.16,7.45
327718.156000,0.884,-0.288,-0.565,43.24,29.91,-4.36
327718.171000,0.837,-0.266,-0.354,24.11,31.74,-15.08
327718.187000,0.759,-0.253,-0.251,19.2,23.07,-21.24
327718.187000,0.705,-0.237,-0.291,20.36,9.31,-20.66
327718.203000,0.691,-0.22,-0.324,17.12,-2.26,-13.7
327718.218000,0.706,-0.222,-0.265,10.56,-11.75,-4.21
327718.218000,0.738,-0.254,-0.2,7.54,-22.0,2.96
327718.234000,0.8,-0.315,-0.32,10.53,-31.59,4.21
327718.234000,0.889,-0.333,-0.481,12.73,-29.88,-0.58
327718.250000,0.968,-0.299,-0.548,11.41,-17.46,-8.76
327718.265000,0.966,-0.327,-0.515,7.78,-4.39,-18.37
327718.265000,0.971,-0.318,-0.389,1.28,2.44,-28.99
327718.281000,0.897,-0.248,-0.341,0.4,-0.46,-37.29
327718.296000,0.845,-0.22,-0.401,7.78,-4.27,-33.33
327718.296000,0.879,-0.204,-0.406,14.4,-5.34,-12.36
327718.312000,0.906,-0.222,-0.371,12.33,-4.09,-10.35
327718.328000,0.933,-0.184,-0.434,12.88,6.59,-7.97
327718.328000,0.975,-0.193,-0.565,8.06,17.0,-6.38
327718.343000,0.928,-0.211,-0.447,7.75,14.89,-3.39
327718.359000,0.887,-0.184,-0.216,12.73,2.14,-1.16
327718.359000,0.889,-0.133,-0.343,18.13,-11.02,3.3
327718.375000,0.896,-0.108,-0.457,17.76,-13.76,11.26
327718.375000,0.885,-0.146,-0.522,11.9,-11.57,20.26
327718.390000,0.873,-0.212,-0.54,6.26,-8.55,29.48
327718.390000,0.904,-0.243,-0.459,2.38,-4.3,36.59
327718.406000,0.908,-0.28,-0.422,4.03,-2.5,37.54
327718.421000,0.859,-0.315,-0.449,6.47,-2.5,33.88
327718.421000,0.839,-0.298,-0.466,7.45,-0.58,29.79
327718.437000,0.84,-0.258,-0.446,7.23,2.5,26.09
327718.453000,0.856,-0.289,-0.43,8.42,5.65,22.8
327718.453000,0.837,-0.318,-0.419,11.26,9.19,17.85
327718.468000,0.774,-0.285,-0.356,9.98,9.13,13.37
327718.484000,0.763,-0.258,-0.31,7.39,3.78,12.82
327718.484000,0.758,-0.266,-0.333,7.02,-4.15,14.31
327718.500000,0.784,-0.275,-0.371,8.51,-8.67,17.27
327718.500000,0.833,-0.298,-0.389,10.44,-8.48,18.65
327718.515000,0.884,-0.294,-0.385,9.22,-5.98,14.77
327718.531000,0.913,-0.279,-0.423,5.46,-3.17,6.78
327718.531000,0.909,-0.28,-0.442,-0.85,2.41,-1.98
327718.546000,0.891,-0.258,-0.349,-7.78,8.3,-8.76
327718.546000,0.863,-0.245,-0.28,-8.55,7.9,-13.31
327718.562000,0.847,-0.207,-0.286,-9.22,2.93,-15.29
327718.578000,0.84,-0.182,-0.322,-12.82,-2.11,-12.91
327718.578000,0.848,-0.182,-0.317,-17.7,-4.97,-7.9
327718.593000,0.874,-0.175,-0.263,-21.18,-6.74,-2.56
327718.609000,0.892,-0.186,-0.291,-19.32,-9.09,0.52
327718.625000,0.908,-0.16,-0.35,-19.87,-8.45,1.16
327718.625000,0.892,-0.142,-0.378,-27.16,-6.1,-0.18
327718.625000,0.884,-0.155,-0.35,-39.77,-4.15,-1.77
327718.640000,0.857,-0.151,-0.257,-51.58,-5.37,-4.0
327718.656000,0.829,-0.16,-0.238,-52.49,-11.2,-4.46
327718.656000,0.811,-0.134,-0.294,-50.36,-18.71,-3.05
327718.687000,0.798,-0.083,-0.331,-51.91,-23.77,0.09
327718.687000,0.786,-0.065,-0.348,-54.17,-26.92,4.46
327718.703000,0.771,-0.068,-0.399,-56.4,-29.51,9.03
327718.718000,0.752,-0.045,-0.445,-62.87,-31.59,13.15
327718.718000,0.706,-0.048,-0.451,-71.66,-35.58,18.43
327718.734000,0.667,-0.081,-0.446,-78.13,-42.02,26.4
327718.750000,0.662,-0.103,-0.463,-79.9,-49.04,35.68
327718.750000,0.693,-0.12,-0.524,-78.43,-56.37,45.5
327718.765000,0.742,-0.141,-0.587,-77.43,-60.79,53.1
327718.765000,0.785,-0.139,-0.676,-79.56,-65.22,55.82
327718.781000,0.783,-0.152,-0.76,-83.07,-58.81,55.3
327718.796000,0.67,-0.202,-0.792,-84.35,-49.59,57.01
327718.796000,0.634,-0.245,-0.779,-83.65,-42.94,66.44
327718.812000,0.698,-0.314,-0.705,-80.6,-36.93,76.36
327718.828000,0.707,-0.371,-0.664,-75.01,-36.74,78.74
327718.828000,0.706,-0.431,-0.693,-66.38,-37.02,77.12
327718.843000,0.743,-0.455,-0.735,-61.43,-34.64,70.19
327718.859000,0.792,-0.463,-0.754,-59.51,-29.76,59.51
327718.859000,0.806,-0.49,-0.776,-55.79,-23.53,46.24
327718.875000,0.778,-0.483,-0.766,-52.71,-16.79,34.52
327718.890000,0.744,-0.472,-0.708,-47.4,-10.1,27.62
327718.890000,0.724,-0.47,-0.652,-38.33,-5.13,25.12
327718.906000,0.716,-0.41,-0.63,-27.16,-0.67,22.92
327718.906000,0.683,-0.42,-0.647,-18.71,0.61,20.14
327718.921000,0.696,-0.406,-0.625,-14.74,2.59,15.38
327718.921000,0.723,-0.353,-0.56,-17.88,2.04,7.6
327718.937000,0.685,-0.371,-0.535,-16.3,-3.2,-1.53
327718.937000,0.681,-0.347,-0.54,-9.03,-7.51,-5.92
327718.953000,0.705,-0.302,-0.587,0.49,-9.55,-6.04
327718.968000,0.707,-0.266,-0.643,6.44,-11.02,-4.27
327718.968000,0.705,-0.252,-0.652,7.26,-11.66,-0.95
327718.984000,0.727,-0.261,-0.635,6.68,-12.09,1.46
327718.984000,0.746,-0.276,-0.662,5.52,-16.91,-1.62
327719.000000,0.757,-0.253,-0.674,0.67,-19.53,-10.9
327719.015000,0.734,-0.185,-0.642,-8.15,-20.48,-23.41
327719.031000,0.693,-0.13,-0.609,-16.66,-21.36,-30.61
327719.046000,0.688,-0.107,-0.564,-20.26,-20.66,-28.11
327719.046000,0.707,-0.108,-0.553,-17.85,-23.19,-19.5
327719.062000,0.735,-0.132,-0.627,-11.78,-26.15,-8.45
327719.062000,0.737,-0.149,-0.701,-7.75,-27.19,2.01
327719.078000,0.764,-0.216,-0.711,-5.86,-21.06,11.29
327719.093000,0.811,-0.29,-0.717,-3.97,-13.28,13.15
327719.109000,0.791,-0.262,-0.709,-3.91,-9.61,7.32
327719.109000,0.762,-0.212,-0.706,-5.22,-4.52,2.5
327719.125000,0.758,-0.17,-0.644,-9.31,2.99,1.74
327719.125000,0.747,-0.172,-0.597,-10.56,4.15,4.67
327719.140000,0.723,-0.214,-0.621,-10.25,-1.16,7.81
327719.156000,0.731,-0.268,-0.635,-11.26,-5.58,10.77
327719.156000,0.76,-0.334,-0.664,-8.73,-7.75,11.11
327719.171000,0.768,-0.36,-0.715,-2.11,-6.65,8.18
327719.171000,0.784,-0.354,-0.766,6.68,-1.83,5.77
327719.187000,0.797,-0.328,-0.802,13.52,5.68,3.51
327719.203000,0.766,-0.302,-0.762,13.73,13.61,-0.24
327719.218000,0.74,-0.292,-0.704,9.83,17.12,-4.79
327719.218000,0.743,-0.292,-0.68,5.19,17.49,-12.3
327719.234000,0.741,-0.287,-0.66,-2.04,17.46,-22.37
327719.234000,0.725,-0.271,-0.634,-8.51,16.79,-31.1
327719.250000,0.72,-0.247,-0.623,-10.38,15.99,-35.13
327719.250000,0.746,-0.221,-0.65,-6.53,15.5,-34.21
327719.265000,0.771,-0.227,-0.731,4.09,17.64,-29.18
327719.281000,0.798,-0.205,-0.738,13.06,26.86,-22.43
327719.281000,0.806,-0.173,-0.708,18.71,36.13,-19.35
327719.296000,0.77,-0.149,-0.695,16.94,40.01,-19.96
327719.312000,0.749,-0.119,-0.647,9.09,42.94,-19.1
327719.312000,0.74,-0.121,-0.568,2.66,45.41,-16.72
327719.328000,0.718,-0.145,-0.51,1.92,41.84,-13.06
327719.328000,0.717,-0.177,-0.528,8.18,31.77,-6.44
327719.343000,0.771,-0.205,-0.577,16.14,28.38,0.12
327719.343000,0.827,-0.21,-0.614,21.12,34.18,0.09
327719.375000,0.776,-0.252,-0.62,23.47,38.27,-4.09
327719.375000,0.729,-0.266,-0.594,23.19,31.89,-2.56
327719.390000,0.794,-0.248,-0.613,23.83,22.92,2.72
327719.390000,0.827,-0.221,-0.638,21.73,21.12,3.45
327719.406000,0.819,-0.206,-0.625,19.26,28.87,1.65
327719.421000,0.777,-0.194,-0.563,17.85,39.98,-1.71
327719.437000,0.711,-0.19,-0.508,15.99,36.38,-3.33
327719.437000,0.756,-0.21,-0.478,13.64,25.79,-3.33
327719.453000,0.811,-0.245,-0.514,15.99,21.33,-7.6
327719.468000,0.812,-0.219,-0.586,16.91,21.88,-14.83
327719.468000,0.827,-0.19,-0.571,12.48,29.36,-19.71
327719.484000,0.771,-0.184,-0.528,10.5,30.03,-20.6
327719.484000,0.759,-0.151,-0.55,9.92,23.35,-15.59
327719.484000,0.794,-0.143,-0.539,8.03,23.77,-9.28
327719.515000,0.797,-0.157,-0.526,2.62,25.85,-7.29
327719.515000,0.751,-0.167,-0.491,-6.78,21.33,-6.96
327719.531000,0.755,-0.195,-0.447,-12.97,13.7,-5.25
327719.546000,0.792,-0.219,-0.448,-8.7,9.09,-3.57
327719.546000,0.794,-0.224,-0.506,2.75,7.48,-1.62
327719.562000,0.797,-0.207,-0.533,8.33,7.75,0.85
327719.562000,0.814,-0.209,-0.506,11.35,9.46,3.54
327719.578000,0.829,-0.209,-0.492,14.71,10.04,4.88
327719.593000,0.815,-0.196,-0.524,14.62,8.42,3.63
327719.593000,0.793,-0.189,-0.532,10.28,7.72,2.32
327719.609000,0.765,-0.19,-0.49,6.26,7.45,2.41
327719.625000,0.753,-0.198,-0.436,6.5,5.31,4.67
327719.625000,0.769,-0.22,-0.439,10.74,0.79,8.3
327719.640000,0.779,-0.202,-0.468,12.85,-3.27,10.65
327719.640000,0.811,-0.199,-0.521,13.46,-4.39,13.18
327719.656000,0.847,-0.21,-0.574,13.31,-0.79,13.92
327719.671000,0.848,-0.206,-0.574,11.17,6.04,12.21
327719.671000,0.841,-0.218,-0.545,10.04,11.69,10.22
327719.687000,0.81,-0.25,-0.531,8.64,14.19,8.15
327719.703000,0.761,-0.252,-0.463,3.81,13.25,6.62
327719.703000,0.75,-0.262,-0.385,5.04,9.25,7.51
327719.718000,0.77,-0.255,-0.406,11.23,3.36,8.12
327719.734000,0.777,-0.214,-0.46,14.19,-0.34,7.57
327719.734000,0.767,-0.189,-0.496,11.66,-2.47,6.84
327719.750000,0.765,-0.201,-0.5,7.23,-3.08,7.17
327719.765000,0.767,-0.221,-0.497,4.61,-3.57,7.39
327719.765000,0.751,-0.235,-0.507,5.52,-3.6,7.45
327719.781000,0.754,-0.242,-0.511,8.42,-1.68,8.45
327719.796000,0.764,-0.223,-0.494,10.13,0.85,9.64
327719.796000,0.766,-0.215,-0.475,11.26,1.95,11.35
327719.796000,0.786,-0.233,-0.471,11.11,1.83,12.97
327719.812000,0.793,-0.237,-0.478,7.78,0.55,11.41
327719.828000,0.773,-0.265,-0.492,4.06,-1.43,9.64
327719.828000,0.748,-0.301,-0.488,2.17,-4.64,9.43
327719.859000,0.756,-0.326,-0.48,5.46,-7.72,10.16
327719.859000,0.779,-0.328,-0.512,11.81,-11.84,11.2
327719.875000,0.788,-0.285,-0.579,16.82,-15.59,11.72
327719.875000,0.812,-0.245,-0.595,19.23,-6.07,14.07
327719.890000,0.839,-0.252,-0.579,16.88,-2.04,10.86
327719.890000,0.855,-0.257,-0.55,12.7,1.01,3.6
327719.906000,0.856,-0.262,-0.509,9.25,-1.34,-4.3
327719.906000,0.817,-0.278,-0.514,6.93,-6.59,-7.72
327719.937000,0.778,-0.285,-0.553,8.0,-9.06,-4.49
327719.953000,0.87,-0.276,-0.636,12.39,-9.09,-1.28
327719.953000,0.874,-0.192,-0.672,14.53,-4.97,-1.13
327719.968000,0.85,-0.13,-0.655,11.96,2.32,0.85
327719.968000,0.828,-0.167,-0.588,8.85,9.67,5.74
327719.984000,0.813,-0.214,-0.488,4.82,10.99,8.88
327720.000000,0.806,-0.24,-0.469,1.71,2.08,9.95
327720.000000,0.803,-0.267,-0.541,-0.67,-9.89,9.61
327720.000000,0.819,-0.273,-0.618,-3.42,-18.37,9.46
327720.015000,0.851,-0.282,-0.701,-1.31,-21.88,11.38
327720.031000,0.864,-0.28,-0.745,3.63,-20.69,15.02
327720.046000,0.898,-0.299,-0.704,7.23,-14.22,20.2
327720.046000,0.943,-0.36,-0.654,13.79,-6.44,22.49
327720.062000,0.939,-0.394,-0.646,22.68,-1.77,18.34
327720.078000,0.902,-0.382,-0.657,28.66,-0.06,11.72
327720.078000,0.866,-0.362,-0.694,28.9,-2.11,6.26
327720.093000,0.84,-0.347,-0.723,26.4,-4.64,3.14
327720.093000,0.827,-0.338,-0.71,25.73,-6.5,4.03
327720.109000,0.809,-0.337,-0.709,29.94,-10.47,7.93
327720.109000,0.807,-0.373,-0.701,38.85,-10.28,13.82
327720.125000,0.86,-0.395,-0.683,48.01,-3.2,18.13
327720.125000,0.909,-0.389,-0.718,57.44,8.33,16.21
327720.156000,0.895,-0.416,-0.792,67.72,23.07,9.77
327720.171000,0.824,-0.426,-0.796,73.09,34.27,3.05
327720.171000,0.788,-0.379,-0.776,73.67,36.59,-0.24
327720.187000,0.772,-0.352,-0.763,75.01,39.49,-0.79
327720.187000,0.731,-0.35,-0.649,74.22,46.6,0.27
327720.203000,0.715,-0.376,-0.489,76.82,52.1,3.11
327720.218000,0.735,-0.437,-0.461,89.66,54.38,3.91
327720.218000,0.745,-0.482,-0.546,102.3,57.99,-0.58
327720.234000,0.709,-0.457,-0.58,100.41,60.12,-8.12
327720.234000,0.684,-0.427,-0.568,91.89,58.84,-13.12
327720.250000,0.698,-0.427,-0.54,85.21,58.08,-14.4
327720.265000,0.715,-0.433,-0.502,82.77,58.38,-14.25
327720.281000,0.728,-0.432,-0.428,82.52,59.33,-13.21
327720.281000,0.753,-0.445,-0.34,82.52,57.37,-13.18
327720.296000,0.77,-0.462,-0.266,81.15,50.11,-16.33
327720.312000,0.757,-0.458,-0.194,76.75,38.42,-21.55
327720.312000,0.724,-0.433,-0.204,73.61,22.1,-25.39
327720.328000,0.718,-0.417,-0.246,76.36,13.98,-24.75
327720.328000,0.731,-0.445,-0.296,86.52,15.41,-22.0
327720.343000,0.746,-0.485,-0.353,97.81,16.63,-20.33
327720.343000,0.786,-0.47,-0.401,102.51,17.4,-21.03
327720.343000,0.841,-0.397,-0.476,98.76,19.59,-24.75
327720.375000,0.865,-0.309,-0.467,84.02,27.47,-28.66
327720.375000,0.825,-0.284,-0.339,67.6,38.24,-29.85
327720.390000,0.78,-0.326,-0.241,60.91,43.34,-28.35
327720.406000,0.736,-0.36,-0.186,57.95,39.25,-26.43
327720.421000,0.688,-0.371,-0.127,55.36,30.58,-22.71
327720.421000,0.641,-0.391,-0.06,57.5,23.47,-17.67
327720.437000,0.616,-0.44,-0.035,65.07,10.74,-11.99
327720.453000,0.65,-0.468,-0.019,75.17,-5.89,-7.93
327720.453000,0.749,-0.461,-0.083,86.98,-15.14,-7.32
327720.453000,0.866,-0.433,-0.271,95.98,-4.06,-12.27
327720.453000,0.906,-0.392,-0.443,91.19,25.03,-22.86
327720.484000,0.859,-0.379,-0.463,68.7,53.99,-32.56
327720.484000,0.829,-0.396,-0.321,43.7,71.54,-38.3
327720.500000,0.84,-0.418,-0.133,31.56,77.94,-43.4
327720.515000,0.818,-0.414,-0.014,30.67,72.73,-47.4
327720.531000,0.804,-0.391,0.015,36.71,62.75,-47.15
327720.531000,0.824,-0.386,-0.015,45.32,56.0,-43.09
327720.546000,0.837,-0.367,-0.03,48.55,53.04,-40.13
327720.562000,0.862,-0.329,0.021,44.98,50.75,-40.44
327720.562000,0.872,-0.314,0.027,44.16,46.17,-42.57
327720.578000,0.874,-0.278,-0.056,44.47,38.06,-44.13
327720.578000,0.888,-0.217,-0.125,36.53,33.85,-41.63
327720.593000,0.899,-0.2,-0.109,23.8,37.35,-35.62
327720.593000,0.902,-0.228,-0.052,14.83,42.66,-29.21
327720.609000,0.914,-0.257,0.004,12.67,45.08,-23.8
327720.625000,0.933,-0.265,0.059,16.21,46.94,-21.03
327720.625000,0.916,-0.263,0.059,22.61,45.17,-19.38
327720.640000,0.923,-0.245,0.047,27.19,40.83,-17.55
327720.656000,0.928,-0.236,-0.001,26.98,34.36,-16.42
327720.656000,0.924,-0.231,-0.027,19.2,29.27,-16.02
327720.671000,0.927,-0.228,0.004,8.06,24.41,-15.26
327720.687000,0.935,-0.238,0.066,1.74,21.64,-14.65
327720.687000,0.919,-0.26,0.106,3.05,21.58,-13.98
327720.703000,0.9,-0.276,0.101,8.24,22.71,-11.87
327720.718000,0.912,-0.287,0.102,11.9,26.15,-9.34
327720.718000,0.907,-0.306,0.11,13.73,29.63,-9.22
327720.734000,0.89,-0.326,0.108,14.07,30.03,-10.5
327720.734000,0.895,-0.325,0.11,13.49,28.66,-13.67
327720.750000,0.914,-0.314,0.102,10.32,25.79,-18.43
327720.750000,0.931,-0.312,0.117,4.18,23.96,-23.77
327720.765000,0.935,-0.296,0.147,-1.83,21.97,-30.46
327720.781000,0.914,-0.271,0.167,-5.13,21.45,-36.29
327720.796000,0.889,-0.25,0.19,-6.5,20.14,-38.27
327720.796000,0.87,-0.228,0.213,-5.01,18.59,-37.6
327720.812000,0.847,-0.209,0.213,-0.58,17.0,-35.04
327720.828000,0.831,-0.204,0.197,2.38,12.73,-30.12
327720.828000,0.835,-0.21,0.191,2.96,5.4,-24.41
327720.843000,0.857,-0.209,0.168,3.33,-0.73,-19.84
327720.859000,0.862,-0.194,0.143,2.47,-3.81,-15.35
327720.859000,0.871,-0.193,0.144,0.43,-3.08,-9.61
327720.875000,0.874,-0.199,0.149,-0.09,-0.18,-4.46
327720.875000,0.85,-0.206,0.133,0.73,4.03,0.06
327720.890000,0.855,-0.221,0.126,-0.31,5.52,6.04
327720.906000,0.873,-0.244,0.138,-1.19,5.89,10.04
327720.921000,0.887,-0.262,0.12,-0.37,5.43,9.98
327720.921000,0.892,-0.277,0.095,-2.35,4.7,7.78
327720.937000,0.899,-0.29,0.095,-7.63,4.21,4.94
327720.937000,0.898,-0.294,0.116,-11.84,4.03,1.31
327720.953000,0.895,-0.298,0.137,-12.88,0.79,-1.89
327720.968000,0.903,-0.308,0.163,-10.41,-4.39,-4.03
327720.968000,0.904,-0.313,0.179,-4.43,-8.0,-5.52
327720.984000,0.909,-0.3,0.178,5.92,-8.88,-7.23
327721.000000,0.915,-0.276,0.169,17.46,-9.28,-9.52
327721.000000,0.92,-0.259,0.159,27.34,-8.88,-11.96
327721.015000,0.972,-0.245,0.159,34.85,-9.37,-14.95
327721.015000,0.988,-0.229,0.141,38.15,-8.67,-21.06
327721.031000,0.985,-0.206,0.108,34.88,-5.13,-27.5
327721.031000,0.973,-0.169,0.093,26.83,2.93,-31.65
327721.062000,0.975,-0.139,0.113,17.85,13.73,-32.62
327721.062000,0.994,-0.123,0.157,12.48,25.36,-31.98
327721.078000,1.008,-0.106,0.19,11.35,33.45,-31.43
327721.093000,1.007,-0.091,0.221,12.36,40.86,-31.86
327721.093000,0.984,-0.073,0.26,13.7,49.5,-30.52
327721.109000,0.954,-0.05,0.3,16.79,58.63,-27.13
327721.109000,0.93,-0.029,0.319,21.18,65.65,-23.26
327721.125000,0.917,-0.021,0.323,22.52,68.64,-19.1
327721.125000,0.91,-0.004,0.344,19.35,68.7,-15.81
327721.125000,0.911,0.009,0.36,14.07,66.65,-13.37
327721.156000,0.917,0.014,0.365,6.2,60.52,-10.35
327721.156000,0.919,0.009,0.374,-5.65,52.0,-5.68
327721.171000,0.915,-0.009,0.394,-18.65,43.49,0.73
327721.171000,0.908,-0.03,0.425,-28.72,36.19,7.69
327721.203000,0.895,-0.05,0.451,-33.23,30.49,14.31
327721.203000,0.896,-0.079,0.46,-32.93,23.01,20.57
327721.203000,0.903,-0.112,0.435,-31.53,12.12,25.7
327721.218000,0.921,-0.151,0.393,-31.92,-0.58,29.11
327721.234000,0.967,-0.176,0.339,-33.42,-11.02,30.4
327721.234000,1.012,-0.199,0.259,-35.89,-14.65,30.24
327721.250000,1.011,-0.229,0.17,-41.26,-7.29,29.76
327721.265000,0.99,-0.264,0.134,-47.98,9.92,28.69
327721.265000,0.962,-0.29,0.14,-52.4,26.95,28.41
327721.281000,0.942,-0.346,0.194,-55.73,36.23,30.58
327721.296000,0.94,-0.393,0.276,-53.71,37.57,31.53
327721.296000,0.934,-0.421,0.312,-44.31,32.41,30.79
327721.312000,0.941,-0.441,0.315,-31.68,23.41,28.17
327721.312000,0.953,-0.448,0.284,-18.71,14.92,23.47
327721.328000,0.976,-0.459,0.227,-9.06,9.89,16.17
