t_monotonic,ax,ay,az,gx,gy,gz
336096.765000,-0.394,-0.226,-0.876,2.5,3.97,-1.5
336096.812000,-0.394,-0.239,-0.88,0.31,4.0,-0.82
336096.859000,-0.402,-0.245,-0.853,3.05,3.91,-0.03
336096.906000,-0.402,-0.252,-0.841,0.67,1.86,0.31
336096.953000,-0.406,-0.247,-0.859,0.67,-1.22,0.58
336097.000000,-0.404,-0.259,-0.87,1.01,-1.34,-0.03
336097.046000,-0.408,-0.254,-0.886,0.46,-1.46,-1.04
336097.093000,-0.398,-0.255,-0.884,0.46,-0.03,-1.43
336097.140000,-0.405,-0.251,-0.868,1.37,1.56,-0.73
336097.187000,-0.392,-0.253,-0.865,2.01,0.43,0.52
336097.234000,-0.395,-0.257,-0.854,-1.43,0.52,-0.03
336097.281000,-0.408,-0.258,-0.86,-1.4,-0.85,0.37
336097.328000,-0.409,-0.268,-0.874,-2.11,0.34,-0.4
336097.375000,-0.419,-0.255,-0.875,0.03,-0.15,-1.4
336097.421000,-0.405,-0.26,-0.875,-0.55,0.7,-1.37
336097.468000,-0.396,-0.254,-0.864,0.46,-0.21,-2.2
336097.515000,-0.395,-0.245,-0.887,-1.53,0.0,-1.1
336097.562000,-0.397,-0.251,-0.873,0.89,1.37,-0.43
336097.609000,-0.404,-0.249,-0.86,-0.18,0.37,0.55
336097.656000,-0.4,-0.269,-0.86,-0.27,-0.92,-0.46
336097.703000,-0.404,-0.268,-0.88,-0.37,-0.03,-1.37
336097.750000,-0.406,-0.267,-0.876,0.34,0.55,-2.78
336097.796000,-0.393,-0.219,-0.885,2.11,2.01,-0.58
336097.843000,-0.347,-0.264,-0.818,-0.73,1.4,3.2
336097.890000,-0.378,-0.264,-0.825,-7.72,-0.31,3.42
336097.937000,-0.441,-0.271,-0.84,-10.19,-3.3,3.05
336097.984000,-0.478,-0.221,-0.935,-8.33,-3.85,0.46
336098.031000,-0.438,-0.25,-0.944,-5.68,0.89,-1.13
336098.078000,-0.395,-0.273,-0.921,-1.25,3.33,-5.31
336098.125000,-0.371,-0.252,-0.881,9.09,5.37,-8.61
336098.171000,-0.357,-0.233,-0.846,2.75,8.03,-8.39
336098.218000,-0.363,-0.181,-0.813,7.23,3.23,-5.71
336098.265000,-0.372,-0.214,-0.858,-3.63,-5.25,3.2
336098.312000,-0.379,-0.263,-0.878,-7.97,-3.45,3.33
336098.359000,-0.404,-0.289,-0.911,-2.41,1.13,2.75
336098.406000,-0.438,-0.263,-0.851,5.31,2.32,-2.66
336098.453000,-0.403,-0.259,-0.834,3.69,-6.68,-5.37
336098.500000,-0.416,-0.249,-0.887,1.19,-8.12,-5.77
336098.546000,-0.413,-0.268,-0.9,0.34,-5.77,-5.01
336098.593000,-0.399,-0.256,-0.923,2.11,-1.37,-7.17
336098.640000,-0.386,-0.24,-0.892,6.5,6.44,-2.93
336098.687000,-0.389,-0.239,-0.822,8.45,7.72,0.67
336098.734000,-0.38,-0.234,-0.788,5.62,-1.43,2.87
336098.781000,-0.385,-0.255,-0.824,-2.08,-7.05,6.29
336098.828000,-0.414,-0.301,-0.864,-8.67,-6.44,5.34
336098.875000,-0.448,-0.275,-0.929,-10.41,-3.42,0.95
336098.921000,-0.443,-0.275,-0.941,-5.37,4.0,0.55
336098.968000,-0.414,-0.255,-0.895,6.9,7.6,-1.46
336099.015000,-0.361,-0.237,-0.834,7.48,5.68,-1.71
336099.062000,-0.37,-0.23,-0.808,-1.16,0.0,0.79
336099.125000,-0.412,-0.243,-0.858,-9.09,-3.3,3.33
336099.171000,-0.441,-0.28,-0.93,-8.18,-1.8,3.23
336099.218000,-0.415,-0.286,-0.921,1.86,3.14,-0.27
336099.265000,-0.388,-0.246,-0.844,7.69,4.55,-3.11
336099.312000,-0.381,-0.221,-0.8,3.6,-0.37,-2.96
336099.359000,-0.405,-0.228,-0.826,-3.45,-8.21,0.55
336099.406000,-0.437,-0.265,-0.901,-8.15,-7.32,1.83
336099.453000,-0.444,-0.287,-0.949,-5.04,0.03,-0.12
336099.500000,-0.394,-0.273,-0.882,6.1,7.9,-4.49
336099.546000,-0.381,-0.214,-0.817,5.01,6.5,-4.3
336099.593000,-0.38,-0.209,-0.796,2.23,-0.31,-1.37
336099.640000,-0.398,-0.221,-0.824,-4.58,-9.16,1.34
336099.703000,-0.449,-0.269,-0.926,-11.29,-8.24,1.83
336099.750000,-0.43,-0.292,-0.959,-1.98,4.06,-1.86
336099.796000,-0.399,-0.25,-0.894,7.87,10.99,-3.57
336099.843000,-0.385,-0.198,-0.813,8.64,10.93,-2.78
336099.890000,-0.388,-0.205,-0.804,0.18,-2.72,2.08
336099.937000,-0.379,-0.245,-0.842,-4.82,-6.93,4.12
336099.984000,-0.43,-0.275,-0.894,-8.51,-6.71,2.29
336100.031000,-0.441,-0.275,-0.947,-5.31,-0.82,-0.76
336100.078000,-0.409,-0.252,-0.919,3.81,7.08,-2.53
336100.125000,-0.373,-0.208,-0.848,8.79,9.0,-1.83
336100.171000,-0.376,-0.205,-0.808,5.07,3.23,2.08
336100.218000,-0.381,-0.229,-0.818,0.12,-4.85,4.15
336100.265000,-0.413,-0.277,-0.852,-8.24,-6.62,3.42
336100.312000,-0.455,-0.284,-0.909,-8.79,-6.2,0.92
336100.359000,-0.443,-0.282,-0.953,-3.33,1.46,-1.43
336100.406000,-0.397,-0.24,-0.905,7.23,8.85,-2.78
336100.453000,-0.377,-0.198,-0.822,6.35,10.1,-2.44
336100.500000,-0.378,-0.184,-0.81,1.83,-1.22,1.34
336100.546000,-0.382,-0.238,-0.86,-4.06,-5.74,4.24
336100.593000,-0.421,-0.272,-0.91,-6.99,-4.91,1.92
336100.640000,-0.437,-0.272,-0.952,-2.38,0.18,1.8
336100.687000,-0.417,-0.272,-0.917,6.07,9.83,-0.37
336100.734000,-0.384,-0.238,-0.824,11.63,9.43,-2.53
336100.781000,-0.365,-0.232,-0.776,7.02,-2.99,-1.95
336100.828000,-0.364,-0.24,-0.812,0.15,-10.25,-1.74
336100.875000,-0.422,-0.286,-0.874,-10.13,-11.72,-2.23
336100.921000,-0.442,-0.284,-0.933,-5.1,-8.12,-5.19
336100.968000,-0.427,-0.265,-0.921,-2.69,0.52,-6.5
336101.015000,-0.368,-0.238,-0.863,4.79,2.93,-5.25
336101.062000,-0.368,-0.204,-0.815,3.75,0.98,-0.43
336101.109000,-0.381,-0.207,-0.785,4.33,-6.59,3.36
336101.156000,-0.413,-0.219,-0.819,-4.18,-17.37,4.97
336101.203000,-0.473,-0.252,-0.892,-12.39,-17.98,6.53
336101.250000,-0.472,-0.291,-0.954,-10.53,-11.26,5.22
336101.296000,-0.44,-0.295,-0.921,-4.61,2.53,3.42
336101.343000,-0.449,-0.262,-0.837,-0.15,9.49,0.61
336101.390000,-0.457,-0.189,-0.831,1.98,4.15,-1.01
336101.437000,-0.433,-0.175,-0.839,0.12,-3.75,-0.06
336101.484000,-0.429,-0.193,-0.877,-2.29,-4.67,3.97
336101.531000,-0.447,-0.236,-0.891,-4.97,-0.98,5.16
336101.578000,-0.449,-0.252,-0.917,-1.22,3.48,4.82
336101.625000,-0.434,-0.263,-0.863,5.34,10.68,1.98
336101.671000,-0.448,-0.225,-0.801,5.22,7.26,-1.01
336101.718000,-0.451,-0.205,-0.812,3.72,-2.23,-0.21
336101.765000,-0.432,-0.221,-0.834,3.11,-5.86,1.25
336101.812000,-0.451,-0.231,-0.852,-2.87,-6.47,0.55
336101.859000,-0.465,-0.253,-0.887,-6.1,-5.16,0.31
336101.906000,-0.45,-0.265,-0.904,-3.27,0.03,-1.77
336101.953000,-0.436,-0.246,-0.87,-1.22,6.9,-3.66
336102.000000,-0.43,-0.209,-0.842,2.04,6.5,-3.75
336102.046000,-0.44,-0.191,-0.832,0.7,2.29,-1.46
336102.093000,-0.423,-0.188,-0.855,2.01,-2.9,-0.06
336102.140000,-0.435,-0.193,-0.873,-0.21,-3.27,3.11
336102.187000,-0.455,-0.245,-0.898,-1.25,-0.06,5.65
336102.234000,-0.452,-0.281,-0.904,0.52,5.92,3.2
336102.281000,-0.426,-0.274,-0.87,4.82,10.83,-0.34
336102.328000,-0.422,-0.239,-0.816,6.38,10.53,-2.75
336102.375000,-0.417,-0.208,-0.798,3.17,1.83,-3.81
336102.421000,-0.422,-0.194,-0.817,1.95,-5.68,-2.11
336102.468000,-0.443,-0.23,-0.857,-2.5,-9.06,2.32
336102.515000,-0.459,-0.262,-0.904,-4.43,-7.45,2.2
336102.562000,-0.452,-0.288,-0.929,-0.98,0.37,-0.37
336102.609000,-0.438,-0.277,-0.906,4.24,8.3,-2.81
336102.656000,-0.406,-0.232,-0.832,9.37,9.58,-4.49
336102.703000,-0.413,-0.196,-0.788,2.29,4.27,-2.93
336102.750000,-0.418,-0.204,-0.816,-2.62,-4.03,0.49
336102.796000,-0.432,-0.228,-0.878,-5.98,-5.98,5.19
336102.843000,-0.458,-0.254,-0.922,-5.92,-0.27,5.68
336102.890000,-0.45,-0.262,-0.937,-3.54,6.87,4.94
336102.953000,-0.438,-0.248,-0.899,3.75,14.74,2.08
336103.000000,-0.395,-0.209,-0.856,8.45,13.86,1.68
336103.062000,-0.35,-0.203,-0.81,8.73,6.56,4.09
336103.109000,-0.39,-0.225,-0.805,-2.44,-1.46,8.09
336103.156000,-0.454,-0.263,-0.857,-6.93,-6.23,6.84
336103.203000,-0.459,-0.307,-0.932,-5.49,-8.06,3.08
336103.250000,-0.385,-0.313,-0.915,6.68,0.82,-3.81
336103.296000,-0.392,-0.25,-0.833,6.32,4.85,-7.66
336103.343000,-0.407,-0.201,-0.76,4.09,-2.62,-6.84
336103.390000,-0.453,-0.207,-0.793,-7.14,-12.24,-4.46
336103.437000,-0.46,-0.259,-0.883,-11.78,-17.37,-3.39
336103.484000,-0.448,-0.291,-0.928,-10.96,-10.38,-5.22
336103.531000,-0.455,-0.256,-0.953,-6.81,-1.77,-8.06
336103.578000,-0.439,-0.227,-0.93,-2.47,10.83,-7.9
336103.625000,-0.418,-0.212,-0.872,0.18,14.1,-7.75
336103.671000,-0.388,-0.173,-0.835,4.0,6.56,-3.94
336103.718000,-0.38,-0.166,-0.877,3.17,2.04,2.04
336103.765000,-0.394,-0.209,-0.863,3.17,5.68,7.14
336103.812000,-0.417,-0.23,-0.884,1.65,4.06,8.82
336103.859000,-0.41,-0.284,-0.873,3.36,5.74,7.87
336103.906000,-0.4,-0.293,-0.858,4.49,4.97,2.96
336103.953000,-0.386,-0.272,-0.827,4.21,2.87,-2.93
336104.000000,-0.405,-0.247,-0.789,1.8,-3.05,-3.75
336104.046000,-0.411,-0.242,-0.793,-3.11,-11.75,-5.4
336104.093000,-0.426,-0.249,-0.831,-9.98,-17.4,-5.8
336104.140000,-0.442,-0.256,-0.905,-9.74,-19.41,-5.34
336104.187000,-0.432,-0.256,-0.938,-5.92,-11.51,-5.25
336104.234000,-0.427,-0.242,-0.914,-2.08,-1.95,-4.97
336104.281000,-0.44,-0.212,-0.88,1.34,1.83,-3.88
336104.328000,-0.436,-0.197,-0.854,4.55,1.65,-1.01
336104.375000,-0.424,-0.199,-0.859,3.36,-1.22,2.66
336104.421000,-0.439,-0.225,-0.85,-0.61,0.73,4.94
336104.468000,-0.443,-0.262,-0.873,-4.61,0.0,5.77
336104.515000,-0.445,-0.269,-0.887,-1.77,4.73,2.87
336104.562000,-0.426,-0.251,-0.853,-0.92,6.38,1.01
336104.609000,-0.423,-0.219,-0.837,-2.81,6.13,-0.18
336104.656000,-0.427,-0.202,-0.846,-2.78,0.15,1.46
336104.703000,-0.42,-0.212,-0.823,2.44,-3.97,4.03
336104.765000,-0.46,-0.212,-0.845,-2.38,-7.63,6.87
336104.812000,-0.475,-0.26,-0.897,-6.13,-5.55,4.0
336104.859000,-0.47,-0.28,-0.918,-5.89,-1.77,-0.24
336104.906000,-0.443,-0.256,-0.912,3.78,4.09,-5.37
336104.953000,-0.403,-0.204,-0.871,7.45,7.2,-8.09
336105.000000,-0.423,-0.161,-0.823,7.54,5.4,-3.91
336105.046000,-0.436,-0.169,-0.847,4.27,-0.92,1.22
336105.093000,-0.445,-0.24,-0.865,1.98,-1.34,4.03
336105.140000,-0.433,-0.283,-0.858,2.01,-1.5,3.23
336105.187000,-0.423,-0.29,-0.823,1.53,1.28,-0.18
336105.234000,-0.444,-0.267,-0.828,-1.74,-0.76,-2.66
336105.281000,-0.454,-0.245,-0.843,-2.29,-3.45,-4.82
336105.328000,-0.459,-0.224,-0.875,-2.23,-4.18,-4.18
336105.375000,-0.455,-0.235,-0.888,-4.94,-0.15,-3.08
336105.421000,-0.454,-0.218,-0.914,-3.97,2.66,-2.32
336105.468000,-0.426,-0.203,-0.891,-2.81,6.01,2.32
336105.515000,-0.422,-0.196,-0.831,-3.88,5.46,8.55
336105.562000,-0.45,-0.176,-0.843,-11.72,-2.5,12.97
336105.609000,-0.45,-0.198,-0.858,-11.66,-7.51,10.83
336105.656000,-0.406,-0.193,-0.928,4.55,-6.44,6.56
336105.703000,-0.414,-0.193,-0.909,8.64,2.96,10.22
336105.750000,-0.448,-0.202,-0.821,10.35,5.34,9.31
336105.796000,-0.445,-0.2,-0.795,10.07,-3.48,11.08
336105.843000,-0.472,-0.231,-0.784,3.88,-11.54,13.18
336105.890000,-0.49,-0.256,-0.819,-1.46,-18.98,10.99
336105.937000,-0.508,-0.247,-0.841,-1.4,-21.15,3.57
336105.984000,-0.478,-0.256,-0.839,2.62,-21.39,1.31
336106.031000,-0.47,-0.235,-0.808,3.27,-12.7,-2.87
336106.078000,-0.48,-0.219,-0.752,-10.07,-13.06,-3.57
336106.125000,-0.533,-0.205,-0.778,-0.76,-16.45,-2.56
336106.171000,-0.528,-0.191,-0.804,-4.79,-21.45,2.01
336106.218000,-0.603,-0.157,-0.85,-8.97,-12.76,2.87
336106.265000,-0.583,-0.195,-0.837,-6.1,-18.77,2.04
336106.312000,-0.572,-0.182,-0.934,-3.11,-8.61,1.28
336106.359000,-0.581,-0.22,-0.856,-4.52,7.75,0.4
336106.406000,-0.56,-0.201,-0.808,-2.32,10.41,-5.77
336106.453000,-0.509,-0.227,-0.887,-2.84,28.32,-15.26
336106.500000,-0.557,-0.166,-0.807,5.62,41.93,-16.97
336106.546000,-0.527,-0.135,-0.797,4.15,21.3,-8.64
336106.593000,-0.48,-0.141,-0.79,-10.28,8.0,-4.03
336106.640000,-0.484,-0.12,-0.805,-15.63,-8.15,5.71
336106.687000,-0.508,-0.097,-0.866,-21.73,-13.61,19.23
336106.734000,-0.491,-0.164,-0.825,-30.7,-7.39,16.27
336106.781000,-0.553,-0.098,-0.846,-15.66,-14.16,21.09
336106.828000,-0.516,-0.145,-0.851,-9.98,-17.4,31.98
336106.875000,-0.52,-0.14,-0.815,5.07,-7.93,18.25
336106.921000,-0.554,-0.115,-0.811,17.73,-7.32,15.72
336106.968000,-0.513,-0.165,-0.847,16.63,-0.92,14.13
336107.015000,-0.535,-0.164,-0.796,25.67,13.82,5.8
336107.062000,-0.557,-0.145,-0.808,18.37,9.55,2.59
336107.109000,-0.55,-0.142,-0.767,11.05,10.01,-0.37
336107.156000,-0.555,-0.117,-0.766,3.57,1.77,-5.37
336107.203000,-0.575,-0.075,-0.823,-0.34,-2.66,1.92
336107.250000,-0.544,-0.122,-0.844,-11.23,-1.83,8.94
336107.296000,-0.546,-0.114,-0.859,-10.59,1.4,13.82
336107.343000,-0.561,-0.085,-0.875,-12.76,-4.0,8.33
336107.390000,-0.531,-0.037,-0.88,-25.3,-1.65,10.22
336107.437000,-0.506,-0.08,-0.839,-22.61,-2.11,4.94
336107.484000,-0.534,-0.032,-0.828,-9.89,-5.92,11.29
336107.531000,-0.521,-0.063,-0.792,-21.27,-9.06,0.37
336107.578000,-0.535,-0.037,-0.831,-11.26,-3.97,3.91
336107.625000,-0.555,-0.037,-0.858,-11.23,2.17,10.83
336107.671000,-0.577,0.031,-0.865,-7.42,6.87,12.39
336107.718000,-0.523,0.035,-0.89,4.09,20.05,26.31
336107.765000,-0.488,0.016,-0.846,19.96,65.86,32.65
336107.812000,-0.482,-0.096,-0.911,8.45,85.76,22.74
336107.859000,-0.416,-0.082,-0.838,68.15,77.52,24.69
336107.906000,-0.373,-0.165,-0.881,65.61,70.93,-11.02
336107.953000,-0.342,-0.125,-0.928,37.84,52.49,-1.98
336108.000000,-0.298,-0.158,-0.862,15.47,44.1,-23.77
336108.046000,-0.246,-0.099,-0.859,22.92,29.33,-9.43
336108.093000,-0.204,-0.048,-0.871,5.28,5.77,10.99
336108.140000,-0.188,-0.056,-0.798,-11.9,-43.61,5.34
336108.187000,-0.265,-0.027,-0.871,-19.32,-62.26,9.92
336108.234000,-0.319,-0.097,-1.089,-24.75,-51.7,57.74
336108.281000,-0.364,-0.134,-0.937,-41.93,-38.51,51.67
336108.328000,-0.386,-0.132,-0.91,-17.94,-23.71,42.66
336108.375000,-0.403,-0.087,-0.976,-8.73,1.31,29.15
336108.421000,-0.448,-0.023,-0.879,-10.07,2.5,19.56
336108.468000,-0.4,-0.009,-0.983,-6.01,1.5,21.21
336108.515000,-0.384,-0.031,-0.946,14.56,22.86,13.98
336108.562000,-0.351,-0.009,-0.917,6.26,30.73,1.92
336108.609000,-0.306,-0.015,-0.907,20.97,22.19,1.01
336108.656000,-0.326,-0.001,-0.899,20.91,12.54,5.13
336108.703000,-0.293,-0.069,-0.879,8.67,4.46,-0.06
336108.750000,-0.375,-0.02,-0.972,2.29,0.24,-10.38
336108.796000,-0.332,-0.124,-0.94,2.29,5.28,5.25
336108.843000,-0.36,-0.083,-0.94,21.3,4.55,-10.9
336108.890000,-0.308,-0.134,-0.956,27.44,3.75,6.53
336108.937000,-0.319,-0.104,-0.877,9.13,9.77,-9.95
336108.984000,-0.308,-0.132,-0.833,16.3,-6.2,-2.78
336109.031000,-0.28,-0.157,-0.873,13.18,-13.34,-4.79
336109.078000,-0.354,-0.126,-0.885,0.4,-21.85,-14.95
336109.125000,-0.372,-0.2,-0.828,1.98,-29.24,-4.39
336109.187000,-0.34,-0.173,-0.96,-15.9,-25.15,-11.81
336109.234000,-0.402,-0.19,-0.846,-34.03,-13.09,-24.87
336109.281000,-0.503,-0.053,-0.863,-31.22,-22.89,-33.81
336109.328000,-0.434,-0.064,-0.947,-22.49,-31.28,-26.49
336109.375000,-0.475,-0.046,-0.966,-11.78,-29.85,-48.8
336109.421000,-0.452,-0.104,-0.996,11.47,-28.2,-28.5
336109.468000,-0.464,-0.084,-0.946,29.85,-13.58,-16.21
336109.515000,-0.439,-0.158,-0.926,31.16,-3.27,-7.48
336109.562000,-0.483,-0.117,-0.86,37.63,-1.46,-15.93
336109.609000,-0.443,-0.184,-0.848,30.7,-0.73,0.18
336109.656000,-0.446,-0.242,-0.783,26.25,-5.01,-7.02
336109.703000,-0.449,-0.228,-0.855,14.86,-7.48,-0.12
336109.750000,-0.455,-0.282,-0.818,-7.17,10.47,4.15
336109.796000,-0.474,-0.282,-0.811,-18.89,11.75,1.01
336109.843000,-0.481,-0.25,-0.838,-13.52,6.07,-2.69
336109.890000,-0.454,-0.239,-0.858,-12.21,5.58,-7.66
336109.937000,-0.466,-0.219,-0.85,-17.09,3.94,-8.48
336109.984000,-0.442,-0.235,-0.858,-4.15,-3.2,-3.23
336110.031000,-0.434,-0.224,-0.861,-1.07,-1.68,0.43
336110.078000,-0.43,-0.241,-0.843,-1.77,1.5,2.81
336110.125000,-0.451,-0.243,-0.82,2.81,-3.45,2.41
336110.171000,-0.454,-0.246,-0.834,1.16,-4.73,1.56
336110.218000,-0.465,-0.249,-0.824,-0.55,-4.39,-1.34
336110.265000,-0.457,-0.233,-0.847,-4.0,-6.81,-0.7
336110.312000,-0.451,-0.231,-0.839,-4.76,-3.91,-0.46
336110.359000,-0.475,-0.214,-0.824,-3.57,-2.81,-2.5
336110.406000,-0.494,-0.198,-0.853,-6.56,-5.86,0.09
336110.453000,-0.5,-0.224,-0.855,-7.6,-3.78,-2.11
336110.500000,-0.507,-0.192,-0.897,-5.28,-7.08,-5.25
336110.546000,-0.464,-0.197,-0.895,-4.91,-3.66,-3.81
336110.593000,-0.463,-0.19,-0.864,0.61,0.0,-2.53
336110.640000,-0.469,-0.173,-0.873,1.19,0.64,0.27
336110.687000,-0.472,-0.183,-0.84,3.63,5.49,1.59
336110.734000,-0.471,-0.199,-0.838,5.83,1.74,2.78
336110.781000,-0.465,-0.208,-0.842,5.62,1.37,2.78
336110.828000,-0.471,-0.21,-0.839,6.53,1.77,4.88
336110.875000,-0.473,-0.223,-0.831,1.65,1.98,4.58
336110.921000,-0.482,-0.239,-0.829,-1.74,1.77,1.83
336110.968000,-0.477,-0.219,-0.836,0.46,-1.4,-2.81
336111.015000,-0.482,-0.193,-0.876,-4.33,1.53,-0.18
336111.062000,-0.476,-0.205,-0.84,-2.72,3.23,-1.71
336111.109000,-0.48,-0.188,-0.856,1.95,1.1,1.65
336111.156000,-0.467,-0.231,-0.816,-1.95,3.94,3.23
336111.203000,-0.468,-0.234,-0.825,1.83,-2.04,1.59
336111.250000,-0.467,-0.234,-0.826,-3.57,-2.29,0.55
336111.296000,-0.486,-0.226,-0.829,-2.01,-4.85,-1.86
336111.343000,-0.487,-0.205,-0.841,-0.12,-7.81,-2.08
336111.390000,-0.493,-0.204,-0.833,0.7,-7.6,-1.04
336111.437000,-0.488,-0.213,-0.831,2.41,-9.4,-0.61
336111.484000,-0.505,-0.216,-0.848,0.21,-10.59,-1.25
336111.531000,-0.508,-0.215,-0.854,-0.58,-6.71,-1.59
336111.578000,-0.514,-0.207,-0.85,2.59,-3.94,-1.77
336111.625000,-0.507,-0.215,-0.87,-0.4,2.53,-1.4
336111.671000,-0.518,-0.208,-0.862,0.46,7.42,-2.9
336111.718000,-0.497,-0.193,-0.864,3.05,9.92,-3.36
336111.765000,-0.464,-0.193,-0.834,2.41,11.81,0.34
336111.812000,-0.466,-0.202,-0.816,3.63,12.09,3.33
336111.859000,-0.476,-0.22,-0.819,1.95,8.06,4.33
336111.906000,-0.48,-0.232,-0.847,3.78,6.59,2.23
336111.953000,-0.454,-0.209,-0.842,4.3,3.05,-2.04
336112.000000,-0.457,-0.19,-0.86,-0.31,3.27,2.08
336112.046000,-0.447,-0.227,-0.847,0.55,4.3,3.39
336112.093000,-0.459,-0.208,-0.859,1.1,2.81,5.16
336112.140000,-0.458,-0.248,-0.831,2.44,6.74,7.48
336112.187000,-0.469,-0.244,-0.818,1.77,3.42,5.83
336112.234000,-0.46,-0.251,-0.814,-4.52,1.28,4.15
336112.281000,-0.457,-0.259,-0.811,-6.93,-1.98,1.65
336112.328000,-0.452,-0.263,-0.828,-6.84,-3.45,1.28
336112.375000,-0.466,-0.254,-0.802,-7.39,-2.69,-2.23
336112.421000,-0.495,-0.21,-0.805,-10.56,-6.23,-6.78
336112.468000,-0.508,-0.184,-0.857,-14.4,-10.1,-6.74
336112.515000,-0.495,-0.162,-0.899,-17.43,-9.83,-10.1
336112.562000,-0.478,-0.125,-0.925,-8.97,-8.94,-6.1
336112.609000,-0.446,-0.173,-0.891,1.25,1.56,0.58
336112.671000,-0.501,-0.15,-0.885,1.16,4.7,1.68
336112.718000,-0.484,-0.181,-0.859,3.54,6.41,2.75
336112.765000,-0.472,-0.187,-0.824,5.07,5.77,0.37
336112.812000,-0.457,-0.181,-0.848,2.23,1.83,1.59
336112.875000,-0.443,-0.19,-0.834,-1.89,4.12,-0.15
336112.921000,-0.479,-0.159,-0.853,-7.6,5.52,-0.73
336112.968000,-0.473,-0.18,-0.862,-5.28,2.5,2.01
336113.015000,-0.468,-0.171,-0.886,-4.21,2.81,-2.62
336113.062000,-0.464,-0.15,-0.906,-1.71,5.89,1.8
336113.109000,-0.446,-0.167,-0.85,3.94,8.06,1.86
336113.156000,-0.441,-0.156,-0.85,1.07,3.42,5.13
336113.203000,-0.447,-0.202,-0.85,1.59,3.27,8.03
336113.250000,-0.439,-0.212,-0.84,0.61,1.5,4.79
336113.296000,-0.445,-0.193,-0.851,-2.32,0.55,0.7
336113.343000,-0.44,-0.193,-0.832,-2.84,-4.46,-2.01
336113.406000,-0.437,-0.193,-0.856,-3.08,-6.71,-0.06
336113.453000,-0.471,-0.186,-0.843,-1.98,-2.11,-0.24
336113.500000,-0.485,-0.181,-0.823,-0.67,-3.81,0.03
336113.546000,-0.504,-0.158,-0.862,-4.94,-6.38,-2.44
336113.593000,-0.485,-0.158,-0.904,-11.87,-7.9,-7.57
336113.640000,-0.47,-0.123,-0.97,-6.93,-3.72,-8.33
336113.687000,-0.435,-0.144,-0.927,1.8,8.09,-4.49
336113.734000,-0.449,-0.13,-0.856,8.51,10.19,-1.04
336113.781000,-0.455,-0.13,-0.839,5.98,9.06,1.4
336113.828000,-0.456,-0.172,-0.83,3.17,4.73,2.99
336113.875000,-0.453,-0.182,-0.865,-0.27,-0.49,-0.98
336113.921000,-0.448,-0.174,-0.889,2.96,1.74,-0.79
336113.968000,-0.438,-0.179,-0.862,2.9,4.61,-1.1
336114.015000,-0.454,-0.147,-0.87,1.1,2.96,-0.43
336114.062000,-0.448,-0.168,-0.86,0.61,3.78,2.66
336114.109000,-0.458,-0.182,-0.858,1.28,1.43,2.11
336114.156000,-0.454,-0.194,-0.883,4.33,1.13,1.8
336114.203000,-0.447,-0.192,-0.877,0.43,3.3,-1.92
336114.250000,-0.433,-0.156,-0.898,-0.24,3.45,-1.65
336114.296000,-0.428,-0.179,-0.861,1.4,5.95,1.59
336114.343000,-0.42,-0.178,-0.85,4.88,1.28,3.51
336114.390000,-0.414,-0.206,-0.83,-0.12,1.1,3.78
336114.437000,-0.434,-0.201,-0.832,-0.31,-2.47,1.56
336114.484000,-0.419,-0.204,-0.875,-3.39,-7.81,-0.58
336114.531000,-0.428,-0.208,-0.856,-6.53,-5.13,-2.99
336114.578000,-0.442,-0.186,-0.868,-2.01,-5.43,-1.43
336114.625000,-0.469,-0.179,-0.831,-5.19,-5.04,-0.37
336114.671000,-0.492,-0.183,-0.823,-5.19,-9.25,-1.13
336114.718000,-0.488,-0.184,-0.839,-5.83,-12.33,-2.84
336114.765000,-0.49,-0.154,-0.91,-5.65,-11.44,-5.16
336114.812000,-0.488,-0.156,-0.929,-5.01,-2.38,-3.45
336114.859000,-0.466,-0.169,-0.906,2.75,-0.37,-4.97
336114.906000,-0.445,-0.127,-0.923,5.71,2.41,-5.34
336114.953000,-0.449,-0.129,-0.865,6.62,11.29,0.06
336115.000000,-0.474,-0.145,-0.823,6.74,8.82,4.3
336115.046000,-0.471,-0.17,-0.842,4.18,4.09,7.39
336115.093000,-0.459,-0.207,-0.87,4.24,3.69,6.23
336115.140000,-0.458,-0.206,-0.858,2.53,5.58,1.25
336115.187000,-0.452,-0.188,-0.87,0.31,4.58,0.24
336115.234000,-0.448,-0.172,-0.858,2.66,5.52,1.77
336115.281000,-0.442,-0.196,-0.823,0.27,3.63,2.59
336115.328000,-0.471,-0.169,-0.898,-0.73,-1.1,0.58
336115.375000,-0.438,-0.188,-0.907,2.99,2.41,1.43
336115.421000,-0.436,-0.173,-0.873,4.49,3.57,-1.01
336115.468000,-0.431,-0.18,-0.861,5.19,2.17,2.96
336115.515000,-0.419,-0.213,-0.837,7.72,-0.43,3.63
336115.562000,-0.431,-0.218,-0.859,1.04,0.58,3.45
336115.609000,-0.434,-0.24,-0.839,-0.61,0.98,2.35
336115.656000,-0.449,-0.234,-0.869,-1.25,0.12,1.62
336115.703000,-0.454,-0.241,-0.831,-0.49,5.37,0.7
336115.750000,-0.461,-0.213,-0.798,-4.09,-5.34,-4.33
336115.796000,-0.454,-0.193,-0.825,-8.45,-8.94,-4.58
336115.843000,-0.447,-0.186,-0.862,-13.82,-8.15,-6.2
336115.890000,-0.462,-0.176,-0.871,-16.21,-9.16,-7.84
336115.937000,-0.485,-0.142,-0.939,-12.42,-8.79,-8.36
336115.984000,-0.469,-0.144,-0.944,-5.74,-0.67,-7.32
336116.031000,-0.446,-0.128,-0.928,1.07,4.61,-3.69
336116.078000,-0.44,-0.146,-0.876,6.26,10.44,-0.09
336116.125000,-0.442,-0.162,-0.816,4.18,7.32,0.58
336116.171000,-0.435,-0.179,-0.862,2.2,0.58,2.56
336116.218000,-0.447,-0.195,-0.862,-0.67,3.6,0.61
336116.265000,-0.447,-0.177,-0.873,-0.92,1.71,-1.46
336116.312000,-0.444,-0.152,-0.881,1.01,4.39,0.15
336116.359000,-0.452,-0.149,-0.865,-1.07,3.75,2.2
336116.406000,-0.423,-0.161,-0.879,4.03,2.14,3.54
336116.453000,-0.426,-0.166,-0.883,1.25,1.95,4.64
336116.500000,-0.449,-0.172,-0.875,2.41,1.37,5.22
336116.546000,-0.452,-0.201,-0.875,5.98,0.58,8.33
336116.593000,-0.435,-0.224,-0.871,5.92,2.84,7.48
336116.640000,-0.431,-0.215,-0.825,6.1,3.3,3.3
336116.687000,-0.422,-0.206,-0.834,1.16,0.85,3.85
336116.734000,-0.43,-0.226,-0.811,-5.58,0.12,1.25
336116.781000,-0.443,-0.216,-0.818,-6.9,-6.87,-1.74
336116.828000,-0.45,-0.196,-0.824,-9.46,-10.38,-3.85
336116.875000,-0.476,-0.181,-0.819,-14.89,-12.63,-7.97
336116.921000,-0.483,-0.127,-0.85,-22.8,-23.16,-15.2
336116.968000,-0.469,-0.105,-0.93,-20.05,-27.74,-11.84
336117.015000,-0.496,-0.088,-0.983,-7.02,-12.02,-3.75
336117.062000,-0.516,-0.127,-0.942,0.27,1.98,-0.24
336117.109000,-0.498,-0.138,-0.948,8.91,7.26,-0.58
336117.156000,-0.473,-0.144,-0.875,13.61,17.76,0.82
336117.203000,-0.455,-0.154,-0.802,12.51,16.36,1.04
336117.250000,-0.458,-0.144,-0.824,7.17,9.19,3.94
336117.312000,-0.455,-0.191,-0.822,5.77,6.44,4.97
336117.359000,-0.449,-0.197,-0.861,0.0,3.48,0.24
336117.406000,-0.468,-0.147,-0.89,-1.53,2.87,-1.19
336117.453000,-0.453,-0.145,-0.897,2.47,7.2,2.44
336117.500000,-0.457,-0.133,-0.874,2.47,8.15,2.08
336117.546000,-0.43,-0.158,-0.878,8.27,5.77,7.84
336117.593000,-0.436,-0.186,-0.854,6.2,5.46,5.74
336117.640000,-0.435,-0.194,-0.882,3.14,-2.9,2.08
336117.687000,-0.415,-0.223,-0.869,6.2,2.23,1.59
336117.734000,-0.413,-0.206,-0.858,3.97,2.26,0.7
336117.781000,-0.406,-0.188,-0.836,4.91,2.56,3.69
336117.828000,-0.427,-0.21,-0.825,4.21,0.12,7.17
336117.875000,-0.437,-0.235,-0.819,7.93,-5.25,7.97
336117.921000,-0.448,-0.24,-0.843,2.14,-5.71,5.43
336117.968000,-0.468,-0.25,-0.832,0.27,-4.18,1.31
336118.015000,-0.494,-0.217,-0.842,-4.12,-6.01,-3.39
336118.062000,-0.497,-0.18,-0.842,-5.71,-7.87,-7.32
336118.109000,-0.482,-0.153,-0.879,-8.06,-9.43,-7.84
336118.156000,-0.453,-0.155,-0.927,-10.62,-4.43,-5.46
336118.203000,-0.455,-0.151,-0.911,-3.66,3.45,-3.75
336118.250000,-0.457,-0.134,-0.887,0.82,4.33,-0.09
336118.312000,-0.45,-0.162,-0.846,2.75,5.19,3.78
336118.359000,-0.456,-0.182,-0.871,0.43,2.41,3.27
336118.406000,-0.461,-0.182,-0.873,3.17,1.86,0.76
336118.453000,-0.452,-0.178,-0.878,5.4,1.65,1.62
336118.500000,-0.433,-0.19,-0.844,2.41,4.73,1.53
336118.546000,-0.442,-0.176,-0.849,3.48,0.67,3.48
336118.593000,-0.453,-0.217,-0.844,-0.09,2.81,5.34
336118.640000,-0.466,-0.21,-0.848,1.01,-1.4,1.71
336118.687000,-0.46,-0.204,-0.864,-2.26,0.46,1.31
336118.734000,-0.461,-0.201,-0.845,-0.52,-0.89,-0.82
336118.781000,-0.453,-0.187,-0.849,-3.08,-2.04,-1.37
336118.828000,-0.457,-0.193,-0.854,-3.54,-1.98,-1.74
336118.875000,-0.454,-0.178,-0.866,-2.41,-3.6,-1.65
336118.921000,-0.448,-0.18,-0.868,-4.58,-1.46,-2.29
336118.968000,-0.46,-0.172,-0.876,-2.69,-1.95,-1.16
336119.015000,-0.458,-0.174,-0.856,-2.59,-0.21,-2.14
336119.062000,-0.456,-0.177,-0.856,-0.7,-2.81,-1.31
336119.109000,-0.48,-0.189,-0.859,-0.73,-1.25,-1.34
336119.156000,-0.475,-0.178,-0.877,0.37,-0.31,-0.21
336119.203000,-0.465,-0.178,-0.866,2.66,1.4,0.12
336119.250000,-0.454,-0.17,-0.874,1.19,3.02,0.0
336119.296000,-0.452,-0.16,-0.882,-0.15,6.84,1.98
336119.343000,-0.456,-0.195,-0.824,-4.09,9.19,1.1
336119.390000,-0.467,-0.171,-0.897,-12.15,3.23,-2.62
336119.437000,-0.435,-0.185,-0.904,-6.16,12.7,-3.85
336119.484000,-0.45,-0.172,-0.829,-6.65,13.46,-5.34
336119.531000,-0.449,-0.152,-0.85,-9.19,0.12,-7.75
336119.578000,-0.396,-0.154,-0.927,-2.32,2.56,-3.66
336119.625000,-0.415,-0.144,-0.885,-2.66,9.34,-3.45
336119.671000,-0.393,-0.124,-0.883,3.45,5.19,-1.31
336119.718000,-0.399,-0.129,-0.917,1.59,5.71,1.83
336119.765000,-0.392,-0.187,-0.902,5.07,9.43,3.3
336119.812000,-0.393,-0.205,-0.887,13.03,6.71,1.74
336119.859000,-0.396,-0.229,-0.858,7.97,12.24,-2.59
336119.906000,-0.39,-0.245,-0.82,7.9,4.09,-5.52
336119.953000,-0.381,-0.229,-0.812,13.34,-6.44,-5.22
336120.000000,-0.411,-0.252,-0.743,6.32,-18.4,-9.46
336120.046000,-0.424,-0.255,-0.772,16.3,-34.21,-5.58
336120.093000,-0.435,-0.264,-0.792,12.24,-31.5,-7.75
336120.140000,-0.531,-0.195,-0.894,8.36,-38.67,-7.69
336120.187000,-0.573,-0.257,-0.94,5.65,-31.53,-8.91
336120.234000,-0.509,-0.226,-1.04,20.05,-25.06,-10.62
336120.281000,-0.391,-0.22,-1.027,11.51,4.33,-6.87
336120.328000,-0.411,-0.181,-0.924,-8.79,37.9,-6.56
336120.375000,-0.416,-0.221,-0.876,2.75,43.21,5.49
336120.421000,-0.448,-0.235,-0.84,20.02,45.05,6.44
336120.468000,-0.447,-0.37,-0.825,22.49,20.81,13.73
336120.515000,-0.46,-0.368,-0.734,54.08,-11.41,9.31
336120.562000,-0.403,-0.402,-0.755,54.02,-40.25,2.26
336120.609000,-0.492,-0.367,-0.666,69.8,-70.47,-10.65
336120.656000,-0.543,-0.442,-0.64,69.89,-90.61,-10.32
336120.703000,-0.621,-0.538,-0.584,64.85,-106.88,-15.81
336120.750000,-0.478,-0.58,-0.659,41.69,-87.41,-10.83
336120.796000,-0.663,-0.609,-0.472,23.07,-36.23,-18.83
336120.843000,-0.772,-0.661,-0.471,26.09,-59.48,-11.41
336120.890000,-0.625,-0.607,-0.456,8.58,-27.25,-28.63
336120.937000,-0.666,-0.643,-0.361,7.75,-10.53,-27.1
336120.984000,-0.692,-0.65,-0.38,14.89,-27.62,-22.31
336121.031000,-0.617,-0.636,-0.46,3.48,-17.09,-20.97
336121.078000,-0.695,-0.622,-0.455,-11.6,-14.07,-23.29
336121.125000,-0.646,-0.619,-0.496,-14.53,-15.47,-24.45
336121.171000,-0.595,-0.556,-0.548,-22.43,-0.64,-17.49
336121.218000,-0.531,-0.577,-0.529,-37.84,25.94,-9.98
336121.265000,-0.563,-0.589,-0.54,-25.48,21.09,-6.07
336121.312000,-0.578,-0.618,-0.605,-28.72,30.92,1.92
336121.359000,-0.674,-0.707,-0.556,-13.15,47.7,5.74
336121.406000,-0.596,-0.669,-0.591,-17.0,46.36,-2.17
336121.453000,-0.556,-0.597,-0.537,-69.0,64.97,-11.6
336121.500000,-0.503,-0.536,-0.507,-85.54,50.17,-17.33
336121.546000,-0.452,-0.428,-0.655,-93.78,29.24,-12.79
336121.593000,-0.407,-0.458,-0.748,-88.47,16.33,-3.54
336121.640000,-0.387,-0.435,-0.816,-52.19,3.33,3.51
336121.687000,-0.407,-0.415,-0.886,-13.64,4.33,6.5
336121.734000,-0.456,-0.416,-0.819,-0.4,14.01,4.85
336121.781000,-0.48,-0.428,-0.832,11.87,9.25,0.31
336121.828000,-0.45,-0.435,-0.794,31.04,17.46,-3.17
336121.875000,-0.435,-0.479,-0.735,34.94,13.61,-4.06
336121.921000,-0.406,-0.505,-0.722,32.2,5.25,-5.89
336121.968000,-0.447,-0.612,-0.641,32.17,2.53,-19.04
336122.015000,-0.486,-0.707,-0.638,62.56,-32.14,-33.3
336122.062000,-0.526,-0.769,-0.666,89.63,-55.3,-49.65
336122.109000,-0.442,-0.774,-0.745,112.16,-44.5,-64.55
336122.156000,-0.397,-0.893,-0.699,108.22,-14.89,-79.62
336122.203000,-0.375,-1.021,-0.554,155.52,-22.34,-67.2
336122.265000,-0.322,-1.041,-0.367,194.95,-21.33,-59.85
336122.312000,-0.279,-1.038,-0.267,139.41,-8.97,-75.35
336122.359000,-0.144,-0.983,0.037,132.79,21.79,-96.19
336122.406000,-0.002,-0.826,0.099,135.9,-3.36,-92.9
336122.453000,0.081,-0.701,0.102,123.84,15.26,-79.68
336122.500000,0.082,-0.57,0.281,95.92,6.13,-37.51
336122.546000,0.165,-0.491,0.23,60.21,-5.22,-6.29
336122.593000,0.137,-0.343,0.252,2.29,-9.31,32.07
336122.640000,0.11,-0.413,0.107,-30.67,-6.62,76.63
336122.687000,0.007,-0.647,0.026,-83.83,9.83,101.9
336122.734000,-0.133,-0.854,-0.061,-72.18,-18.8,113.28
336122.781000,-0.227,-0.987,-0.194,-75.29,-9.4,110.17
336122.828000,-0.488,-0.975,0.018,-56.58,18.37,103.55
336122.875000,-0.787,-0.951,0.011,-85.79,23.44,91.34
336122.921000,-1.079,-1.153,0.235,-129.06,19.75,78.52
336122.968000,-1.15,-1.137,-0.105,-71.29,-16.88,84.14
336123.015000,-1.063,-1.033,-0.188,-110.9,-18.13,34.15
336123.062000,-1.09,-0.841,-0.091,-30.09,-34.58,71.44
336123.109000,-0.987,-0.789,-0.326,-35.8,-34.76,97.32
336123.156000,-0.936,-0.723,-0.387,-47.85,-10.71,65.28
336123.203000,-0.962,-0.637,-0.312,-20.42,6.32,82.67
336123.250000,-0.984,-0.833,-0.254,51.33,-20.57,145.79
336123.296000,-0.912,-1.008,-0.157,25.15,15.9,52.34
336123.343000,-0.841,-0.944,0.067,62.01,-2.5,13.0
336123.390000,-0.678,-0.886,0.064,119.33,-27.16,-17.09
336123.437000,-0.628,-0.801,-0.088,141.3,-26.0,-65.03
336123.484000,-0.542,-0.64,-0.159,111.73,-8.82,-99.19
336123.531000,-0.516,-0.597,-0.033,151.65,23.93,-101.99
336123.578000,-0.568,-0.425,0.016,199.22,41.23,-102.48
336123.625000,-0.584,-0.446,0.19,122.26,62.47,-97.72
336123.671000,-0.621,-0.456,0.344,122.14,51.82,-73.98
336123.718000,-0.559,-0.405,0.281,95.37,25.85,-31.22
336123.765000,-0.71,-0.594,0.431,50.72,39.09,-24.05
336123.812000,-0.646,-0.606,0.393,46.51,31.74,-21.58
336123.859000,-0.62,-0.638,0.446,24.2,42.97,-32.11
336123.906000,-0.584,-0.64,0.385,39.83,47.85,-40.74
336123.953000,-0.587,-0.678,0.382,24.11,62.35,-43.37
336124.000000,-0.562,-0.75,0.386,17.43,55.54,-31.98
336124.046000,-0.478,-0.772,0.337,0.43,44.56,-28.81
336124.093000,-0.562,-0.751,0.305,-12.79,46.91,-15.75
336124.140000,-0.669,-0.938,0.341,-14.4,39.37,11.02
336124.187000,-0.533,-0.889,0.277,-7.97,17.09,1.68
336124.234000,-0.498,-0.782,0.21,-5.07,14.8,-0.15
336124.281000,-0.499,-0.766,0.118,-16.36,5.65,1.22
336124.328000,-0.501,-0.73,0.104,5.8,15.78,1.22
336124.375000,-0.519,-0.733,0.167,20.84,31.22,10.19
336124.421000,-0.611,-0.794,0.232,18.92,34.67,9.89
336124.468000,-0.653,-0.784,0.214,13.43,23.29,4.24
336124.515000,-0.713,-0.798,0.169,12.7,26.25,2.04
336124.562000,-0.732,-0.705,0.114,2.69,26.25,1.43
336124.609000,-0.693,-0.708,0.089,-5.37,30.76,11.51
336124.656000,-0.681,-0.778,0.106,-7.26,39.12,12.24
336124.703000,-0.64,-0.77,0.124,-9.49,40.93,9.67
336124.750000,-0.652,-0.756,0.139,-12.51,43.34,10.16
336124.796000,-0.648,-0.796,0.202,-11.72,30.82,5.4
336124.843000,-0.636,-0.727,0.147,-4.24,20.02,5.55
336124.890000,-0.659,-0.735,0.156,-7.93,19.78,4.15
336124.937000,-0.698,-0.694,0.137,7.32,9.19,4.39
336124.984000,-0.723,-0.698,0.07,-3.36,8.12,7.54
336125.031000,-0.722,-0.719,0.066,-11.26,5.46,7.26
336125.078000,-0.726,-0.715,0.017,-4.52,5.31,4.82
336125.125000,-0.708,-0.731,0.018,-13.95,6.26,4.18
336125.171000,-0.692,-0.725,-0.001,-10.01,8.51,0.12
336125.218000,-0.681,-0.734,0.025,-13.34,12.91,1.74
336125.265000,-0.682,-0.759,0.074,-7.08,10.13,-1.92
336125.312000,-0.686,-0.771,0.05,-11.08,-3.81,-1.89
336125.359000,-0.669,-0.75,0.03,-9.92,-7.54,-2.72
336125.406000,-0.667,-0.762,0.02,-10.53,-8.18,-4.79
336125.453000,-0.685,-0.708,-0.009,-16.3,-4.15,-7.14
336125.500000,-0.711,-0.69,-0.027,-23.13,-4.94,-6.47
336125.546000,-0.706,-0.687,-0.077,-27.38,-13.06,-6.29
336125.593000,-0.66,-0.722,-0.101,-22.74,-13.67,-0.24
336125.640000,-0.678,-0.768,-0.024,-19.44,-9.67,10.56
336125.687000,-0.642,-0.759,-0.007,-7.42,-22.52,8.97
336125.734000,-0.616,-0.735,-0.02,-15.81,-18.46,4.52
336125.781000,-0.663,-0.686,-0.003,-25.54,-22.86,2.99
336125.828000,-0.66,-0.66,-0.066,-28.78,-28.78,9.31
336125.875000,-0.672,-0.644,-0.089,-23.93,-26.49,12.88
336125.921000,-0.71,-0.622,-0.109,-16.6,-31.53,17.06
336125.968000,-0.749,-0.668,-0.091,-15.05,-23.26,21.03
336126.015000,-0.795,-0.683,-0.065,-6.62,-26.09,15.38
336126.062000,-0.798,-0.684,-0.11,-1.83,-22.13,7.35
336126.109000,-0.811,-0.68,-0.139,-0.82,-18.01,2.01
336126.156000,-0.83,-0.711,-0.188,5.04,-11.54,-4.82
336126.203000,-0.793,-0.672,-0.248,13.06,-2.87,-13.37
336126.250000,-0.795,-0.636,-0.272,17.15,10.04,-11.72
336126.296000,-0.83,-0.612,-0.278,13.95,24.69,-11.6
336126.343000,-0.849,-0.592,-0.202,6.65,33.66,-9.25
336126.390000,-0.808,-0.622,-0.086,14.07,24.69,-5.1
336126.437000,-0.733,-0.537,0.038,16.85,12.57,0.82
336126.484000,-0.744,-0.633,0.164,-43.67,8.88,5.89
336126.531000,-0.871,-0.851,0.26,-54.81,7.23,22.64
336126.578000,-0.85,-0.929,0.449,-2.04,-14.16,4.88
336126.625000,-0.592,-0.643,0.354,48.95,-55.21,5.49
336126.671000,-0.551,-0.643,0.364,35.65,-35.25,8.15
336126.718000,-0.762,-0.794,0.467,12.51,-23.99,8.42
336126.765000,-0.803,-0.787,0.394,36.71,-31.95,-1.62
336126.812000,-0.706,-0.673,0.258,40.77,-35.0,-15.59
336126.859000,-0.628,-0.588,0.108,22.95,-7.11,-13.73
336126.906000,-0.658,-0.643,0.13,10.04,14.37,-18.62
336126.953000,-0.718,-0.638,0.048,15.23,41.17,-21.52
336127.000000,-0.924,-0.729,0.06,18.59,73.52,-6.96
336127.046000,-0.843,-0.638,0.092,-1.46,40.1,-18.68
336127.093000,-0.685,-0.643,-0.018,-2.66,29.05,16.27
336127.140000,-0.818,-0.778,0.147,-4.18,62.93,26.67
336127.187000,-0.831,-0.837,0.2,-29.48,28.53,-2.01
336127.234000,-0.65,-0.653,-0.072,-40.62,-2.69,-21.0
336127.281000,-0.636,-0.531,-0.148,-29.08,11.57,-12.24
336127.328000,-0.685,-0.545,-0.176,-31.86,29.02,6.96
336127.375000,-0.72,-0.702,-0.087,-45.5,32.93,18.28
336127.421000,-0.687,-0.702,-0.01,-15.17,23.96,16.24
336127.468000,-0.687,-0.714,-0.005,-19.96,12.85,15.75
336127.515000,-0.696,-0.721,-0.035,-32.38,5.04,5.13
336127.562000,-0.76,-0.665,-0.096,-33.45,-0.4,1.98
336127.609000,-0.776,-0.674,-0.159,-43.61,-13.34,0.67
336127.656000,-0.703,-0.646,-0.227,-26.18,-21.64,3.3
336127.703000,-0.686,-0.62,-0.178,-21.24,-9.52,8.7
336127.750000,-0.736,-0.631,-0.126,-29.97,-17.55,4.46
336127.796000,-0.771,-0.605,-0.136,-20.42,-25.15,-0.31
336127.843000,-0.782,-0.609,-0.172,-18.16,-31.86,2.38
336127.890000,-0.818,-0.582,-0.131,-8.51,-34.09,0.73
336127.937000,-0.786,-0.562,-0.167,-2.75,-43.55,-1.59
336127.984000,-0.845,-0.586,-0.134,5.16,-30.34,-1.89
336128.031000,-0.856,-0.622,-0.125,10.16,-37.42,-8.64
336128.078000,-0.811,-0.59,-0.202,21.55,-33.27,-16.36
336128.125000,-0.872,-0.578,-0.18,23.71,-12.18,-17.18
336128.171000,-0.911,-0.611,-0.171,23.96,-10.86,-17.94
336128.218000,-0.881,-0.658,-0.258,28.05,0.24,-28.05
336128.265000,-0.837,-0.565,-0.213,42.57,22.34,-30.52
336128.312000,-0.756,-0.586,-0.151,51.52,33.48,-21.15
336128.359000,-0.666,-0.639,0.018,53.74,39.31,-12.42
336128.406000,-0.639,-0.686,0.141,52.89,37.87,-3.57
336128.453000,-0.696,-0.768,0.184,32.65,19.26,-8.55
336128.500000,-0.676,-0.707,0.098,21.82,-2.38,-10.9
336128.546000,-0.667,-0.729,0.047,9.89,-5.55,-4.18
336128.593000,-0.658,-0.745,0.055,12.63,5.49,-8.12
336128.640000,-0.608,-0.757,0.05,13.21,-7.32,-1.74
336128.687000,-0.588,-0.736,0.099,15.41,-5.83,0.61
336128.734000,-0.597,-0.721,0.087,1.86,-20.42,5.37
336128.781000,-0.646,-0.792,0.044,-7.54,-23.87,6.5
336128.828000,-0.744,-0.694,0.031,-18.92,-33.08,3.02
336128.875000,-0.693,-0.709,0.011,-29.08,-42.54,5.8
336128.921000,-0.681,-0.735,0.006,-33.57,-41.11,2.38
336128.968000,-0.626,-0.708,0.061,-39.52,-54.45,-1.59
336129.015000,-0.712,-0.694,0.054,-45.93,-51.18,6.84
336129.062000,-0.915,-0.904,0.185,-68.7,-11.02,28.17
336129.109000,-0.838,-0.916,0.407,-29.33,-7.97,10.93
336129.156000,-0.534,-0.589,0.269,-17.37,-49.9,-18.65
336129.203000,-0.535,-0.554,0.308,-4.94,-34.39,-17.03
336129.250000,-0.673,-0.587,0.326,-9.06,-24.29,-8.18
336129.296000,-0.782,-0.882,0.434,3.2,-4.88,10.1
336129.343000,-0.786,-0.841,0.413,30.24,-10.96,-27.47
336129.390000,-0.624,-0.612,0.334,38.64,-25.73,-36.13
336129.437000,-0.528,-0.485,0.311,45.08,-23.32,-7.84
336129.484000,-0.596,-0.59,0.359,25.64,-14.59,26.89
336129.531000,-0.705,-0.639,0.4,4.79,-32.38,41.99
336129.578000,-0.742,-0.746,0.335,-51.76,-54.96,43.76
336129.625000,-0.782,-0.839,0.269,-80.39,-52.71,28.78
336129.671000,-0.645,-0.831,0.163,-103.37,-38.76,-1.19
336129.718000,-0.502,-0.939,0.104,-53.29,-11.69,-5.89
336129.765000,-0.418,-0.971,0.237,35.49,45.87,-32.38
336129.812000,-0.491,-0.802,0.326,112.06,61.04,-45.44
336129.859000,-0.526,-0.637,0.259,153.32,76.11,-55.76
336129.906000,-0.665,-0.519,0.329,128.39,87.16,-53.65
336129.953000,-0.749,-0.818,0.36,62.26,64.39,-27.38
336130.000000,-0.751,-0.913,0.274,3.17,37.23,-29.11
336130.046000,-0.707,-1.172,0.128,-8.27,38.7,-27.59
336130.093000,-0.808,-1.24,-0.05,-10.41,79.17,-53.74
336130.140000,-0.548,-1.07,-0.194,-19.53,90.91,-110.48
336130.187000,-0.5,-0.777,-0.192,-29.48,161.44,-136.75
336130.234000,-0.466,-0.936,-0.203,46.97,169.47,-118.96
336130.281000,-0.45,-0.788,-0.118,82.46,159.79,-104.92
336130.328000,-0.285,-0.891,0.141,104.86,119.11,-64.82
336130.375000,-0.186,-0.926,0.147,76.75,92.87,-41.23
336130.421000,-0.356,-1.004,0.295,47.12,117.68,-85.97
336130.468000,-0.431,-0.913,0.425,53.93,76.88,-96.71
336130.515000,-0.399,-0.716,0.25,76.66,69.67,-102.54
336130.562000,-0.321,-0.596,0.306,47.09,78.07,-77.09
336130.609000,-0.183,-0.363,0.51,25.88,68.88,-30.43
336130.656000,-0.2,-0.312,0.535,6.35,41.14,13.15
336130.703000,-0.378,-0.446,0.57,-20.51,29.79,82.31
336130.750000,-0.422,-0.884,0.486,-26.7,-8.3,111.48
336130.796000,-0.231,-1.106,0.264,-47.73,-38.58,53.1
336130.843000,-0.28,-0.997,0.377,-44.13,-19.71,50.17
336130.890000,-0.354,-1.027,0.459,-49.75,-52.34,64.94
336130.937000,-0.37,-1.065,0.337,-56.73,-84.23,42.79
336130.984000,-0.339,-1.059,0.38,-56.12,-98.06,44.53
336131.031000,-0.292,-1.122,0.252,-53.1,-113.74,29.69
336131.078000,-0.273,-1.064,0.218,-43.12,-118.56,3.54
336131.125000,-0.222,-1.125,0.066,-36.26,-141.91,15.32
336131.171000,-0.166,-1.051,-0.135,-22.37,-100.13,4.55
336131.218000,-0.148,-1.003,0.136,-34.03,-46.11,26.73
336131.265000,-0.289,-1.012,-0.004,6.29,-43.12,42.88
336131.312000,-0.3,-1.035,0.512,-37.11,-19.17,11.66
336131.359000,-0.288,-0.879,0.199,21.09,-17.91,14.92
336131.406000,-0.421,-0.918,0.232,28.9,-55.85,31.31
336131.453000,-0.299,-0.954,0.572,24.69,-58.96,-4.12
336131.500000,-0.381,-0.924,0.248,5.25,-35.55,2.99
336131.546000,-0.246,-0.952,0.277,-1.22,-6.32,10.9
336131.593000,-0.157,-1.061,0.225,-12.09,-14.44,-25.03
336131.640000,-0.341,-1.121,0.313,-67.08,-38.79,-33.36
336131.687000,-0.402,-0.431,0.384,23.62,-36.87,36.04
336131.734000,-0.241,-0.958,0.166,-8.48,14.47,-6.93
336131.781000,-0.353,-0.795,0.398,-47.52,28.02,-19.23
336131.828000,-0.306,-0.878,0.326,-5.89,5.07,5.43
336131.875000,-0.242,-0.984,0.23,-12.27,6.2,4.36
336131.921000,-0.251,-0.879,0.316,-26.98,8.12,3.2
336131.968000,-0.257,-0.938,0.184,-15.87,-6.56,24.29
336132.015000,-0.311,-0.95,0.173,-17.58,-4.24,15.11
336132.062000,-0.313,-0.929,0.12,-19.75,-0.24,19.71
336132.109000,-0.315,-0.857,0.122,-11.72,13.55,21.15
336132.156000,-0.383,-1.011,0.137,-15.29,19.35,19.47
336132.203000,-0.348,-0.937,0.162,66.04,51.64,23.13
336132.250000,-0.49,-0.674,0.489,155.49,-27.38,74.83
336132.296000,-0.473,-0.673,0.308,109.84,-62.9,69.37
336132.343000,-0.451,-0.929,0.052,30.85,12.7,51.42
336132.390000,-0.635,-0.774,0.484,7.05,-2.44,53.56
336132.437000,-0.635,-0.783,0.516,16.08,-17.79,41.05
336132.484000,-0.623,-0.729,0.444,-5.95,-20.29,30.24
336132.531000,-0.608,-0.749,0.524,13.37,-1.89,20.81
336132.578000,-0.524,-0.746,0.175,58.38,60.43,-6.96
336132.625000,-0.529,-0.65,0.461,-1.37,6.47,-16.11
336132.671000,-0.717,-0.735,0.357,-13.89,36.56,-1.83
336132.718000,-0.806,-0.847,0.677,23.07,22.37,-1.8
336132.765000,-0.599,-0.716,0.38,22.61,16.36,-39.43
336132.812000,-0.407,-0.56,0.6,3.36,23.41,-51.73
336132.859000,-0.435,-0.635,0.593,25.48,-20.63,-17.64
336132.906000,-0.538,-0.741,0.61,21.0,-4.97,-11.35
336132.953000,-0.678,-0.756,0.674,24.81,1.31,-11.02
336133.000000,-0.523,-0.618,0.503,30.27,-2.32,-22.4
336133.046000,-0.371,-0.476,0.423,25.94,0.89,-2.08
336133.093000,-0.375,-0.554,0.475,25.64,-7.17,29.15
336133.140000,-0.578,-0.646,0.656,10.16,-5.04,58.29
336133.187000,-0.759,-0.809,0.704,21.67,-11.05,24.38
336133.234000,-0.538,-0.548,0.506,1.83,-12.73,-7.9
336133.281000,-0.482,-0.497,0.489,1.34,-2.08,5.98
336133.328000,-0.532,-0.581,0.546,-6.65,-2.38,10.28
336133.375000,-0.575,-0.648,0.615,-10.68,2.56,12.54
336133.421000,-0.593,-0.635,0.636,-18.56,-5.52,9.86
336133.468000,-0.599,-0.626,0.62,-15.23,-11.35,3.72
336133.515000,-0.538,-0.583,0.539,-6.65,-5.16,3.54
336133.562000,-0.55,-0.551,0.533,10.16,0.21,16.24
336133.609000,-0.573,-0.602,0.575,12.36,2.08,23.56
336133.656000,-0.627,-0.593,0.624,6.9,2.2,18.1
336133.703000,-0.579,-0.637,0.586,14.4,-7.35,8.15
336133.750000,-0.645,-0.579,0.655,3.94,-10.01,-10.41
336133.796000,-0.57,-0.533,0.6,16.39,-11.63,-5.62
336133.843000,-0.533,-0.492,0.614,9.09,-17.03,-8.3
336133.890000,-0.528,-0.487,0.686,4.12,-7.39,2.5
336133.937000,-0.578,-0.48,0.741,13.52,-6.04,11.08
336133.984000,-0.613,-0.443,0.737,15.81,3.17,17.79
336134.031000,-0.609,-0.488,0.652,13.76,-12.7,27.38
336134.078000,-0.56,-0.572,0.628,-23.74,-38.7,21.39
336134.125000,-0.532,-0.502,0.628,-8.7,-13.73,17.7
336134.171000,-0.566,-0.549,0.638,-10.19,3.33,15.84
336134.218000,-0.593,-0.511,0.686,-5.49,6.87,0.95
336134.265000,-0.579,-0.406,0.721,-18.74,19.84,-6.99
336134.312000,-0.701,-0.352,0.531,32.5,58.47,-9.06
336134.359000,-0.64,-0.517,0.61,-35.89,-8.79,-6.74
336134.406000,-0.691,-0.397,0.74,-18.25,10.56,-1.34
336134.453000,-0.62,-0.421,0.688,1.86,10.28,0.7
336134.500000,-0.597,-0.518,0.58,-13.4,15.08,4.36
336134.546000,-0.625,-0.6,0.456,-54.51,23.83,7.29
336134.593000,-0.651,-0.735,0.359,-49.32,41.87,25.36
336134.640000,-0.796,-0.763,0.428,-24.93,47.67,18.37
336134.687000,-0.737,-0.815,0.528,-15.53,10.8,-2.81
336134.734000,-0.583,-0.662,0.411,-8.88,4.24,-20.14
336134.781000,-0.579,-0.632,0.396,-24.93,2.75,-11.57
336134.828000,-0.748,-0.61,0.354,-14.34,12.85,-15.29
336134.875000,-0.775,-0.627,0.455,-15.87,1.89,0.31
336134.921000,-0.667,-0.604,0.23,5.19,-0.89,-16.48
336134.968000,-0.61,-0.426,0.416,10.8,-6.01,-1.8
336135.015000,-0.693,-0.425,0.557,50.51,-16.3,45.63
336135.062000,-0.704,-0.514,0.635,76.02,-19.38,58.47
336135.109000,-0.872,-0.46,0.562,-62.65,-9.34,11.02
336135.156000,-0.752,-0.681,0.57,6.07,0.55,22.13
336135.203000,-0.743,-0.518,0.576,13.82,-13.61,18.46
336135.250000,-0.74,-0.522,0.642,-4.58,-8.79,0.43
336135.296000,-0.677,-0.472,0.515,5.4,-16.51,3.36
336135.343000,-0.663,-0.472,0.425,-10.13,-5.31,10.25
336135.390000,-0.737,-0.492,0.502,-10.86,-0.98,7.32
336135.437000,-0.725,-0.449,0.493,2.75,-2.47,-2.38
336135.484000,-0.743,-0.497,0.369,1.83,-19.96,10.16
336135.531000,-0.713,-0.478,0.543,15.02,7.72,-8.55
336135.578000,-0.705,-0.403,0.53,11.38,-3.2,7.29
336135.625000,-0.708,-0.424,0.588,17.37,-1.98,16.02
336135.687000,-0.73,-0.474,0.56,5.83,-8.09,16.36
336135.734000,-0.722,-0.463,0.565,3.91,-7.54,15.9
336135.781000,-0.671,-0.449,0.559,17.67,-3.45,8.45
336135.828000,-0.739,-0.416,0.592,18.28,-9.8,-3.2
336135.875000,-0.755,-0.439,0.576,11.69,-17.3,10.53
336135.921000,-0.756,-0.423,0.622,17.76,-11.14,9.92
336135.968000,-0.745,-0.35,0.616,16.14,-4.43,-4.09
336136.015000,-0.712,-0.349,0.649,24.81,-7.11,12.24
336136.062000,-0.624,-0.351,0.612,42.7,2.56,10.99
336136.109000,-0.68,-0.371,0.625,37.66,-0.18,-5.52
336136.156000,-0.65,-0.382,0.609,54.14,16.57,-14.16
336136.203000,-0.73,-0.165,0.617,47.79,20.69,-27.77
336136.250000,-0.76,-0.24,0.708,12.02,3.78,11.02
336136.296000,-0.72,-0.325,0.667,-105.93,10.93,-2.47
336136.343000,-0.804,-0.152,0.805,14.31,12.63,29.27
336136.390000,-0.753,-0.169,0.339,50.69,-46.57,39.22
336136.437000,-0.783,-0.156,0.763,46.6,3.85,14.92
336136.484000,-0.81,-0.307,0.634,5.8,-10.32,-6.04
336136.531000,-0.784,-0.211,0.67,-21.39,-15.56,-16.51
336136.578000,-0.739,-0.183,0.647,-16.36,-10.93,10.25
336136.625000,-0.752,-0.258,0.657,-11.66,-18.37,10.25
336136.671000,-0.728,-0.254,0.681,-6.87,-11.05,26.7
336136.718000,-0.704,-0.294,0.63,-2.59,-6.04,8.06
336136.765000,-0.723,-0.261,0.676,-6.99,1.62,0.15
336136.812000,-0.709,-0.286,0.635,-13.73,6.13,2.62
336136.859000,-0.717,-0.256,0.653,-20.6,5.46,-7.84
336136.906000,-0.704,-0.22,0.61,-6.41,7.9,9.4
336136.953000,-0.73,-0.267,0.602,-18.13,-0.52,11.38
336137.000000,-0.715,-0.346,0.739,-8.85,17.91,10.07
336137.046000,-0.641,-0.421,0.171,39.7,19.9,2.84
336137.093000,-0.767,-0.19,0.572,13.18,16.79,-0.37
336137.140000,-0.809,-0.229,0.699,-3.02,13.7,3.94
336137.187000,-0.825,-0.279,0.675,-9.0,11.69,7.14
336137.234000,-0.789,-0.242,0.688,-27.95,7.69,3.11
336137.281000,-0.774,-0.324,0.569,-21.73,5.43,-2.84
336137.328000,-0.756,-0.362,0.436,-66.96,-3.66,-9.95
336137.375000,-0.783,-0.265,0.586,-11.54,5.43,3.57
336137.421000,-0.814,-0.254,0.57,-24.45,-4.15,-0.27
336137.468000,-0.785,-0.319,0.567,-19.65,-3.69,12.88
336137.515000,-0.789,-0.365,0.551,-17.43,-9.98,8.85
336137.562000,-0.801,-0.343,0.592,-9.09,-9.83,2.38
336137.609000,-0.767,-0.332,0.56,-6.81,-14.31,7.84
336137.656000,-0.737,-0.307,0.531,-2.17,-11.11,10.62
336137.703000,-0.763,-0.298,0.566,3.05,-4.79,11.08
336137.750000,-0.773,-0.322,0.573,2.9,-2.59,4.18
336137.796000,-0.777,-0.292,0.578,-4.79,-5.95,8.61
336137.843000,-0.773,-0.338,0.568,-13.34,0.12,1.59
336137.890000,-0.784,-0.328,0.584,-7.05,-1.8,3.45
336137.937000,-0.788,-0.342,0.574,-2.29,2.9,0.03
336137.984000,-0.765,-0.335,0.559,-5.92,0.37,-0.46
336138.031000,-0.773,-0.328,0.563,-5.28,2.5,-0.24
336138.078000,-0.777,-0.315,0.548,-10.47,5.74,-0.15
336138.125000,-0.768,-0.308,0.549,-1.22,3.51,1.95
336138.171000,-0.771,-0.304,0.554,-1.68,3.36,1.37
336138.218000,-0.786,-0.325,0.562,1.53,0.49,4.3
336138.265000,-0.777,-0.343,0.551,1.01,0.98,2.29
336138.312000,-0.801,-0.319,0.562,-2.32,2.5,1.92
336138.359000,-0.773,-0.316,0.543,-1.25,-0.21,4.27
336138.406000,-0.786,-0.328,0.56,-0.37,1.62,3.57
336138.453000,-0.795,-0.329,0.553,0.55,-0.15,2.2
336138.500000,-0.787,-0.318,0.563,0.76,0.06,1.74
336138.546000,-0.803,-0.319,0.553,0.95,1.77,0.79
336138.593000,-0.778,-0.311,0.535,0.24,1.07,0.21
336138.640000,-0.786,-0.314,0.528,0.37,1.8,1.19
336138.687000,-0.79,-0.302,0.542,0.82,3.42,0.61
336138.734000,-0.786,-0.305,0.553,4.21,2.35,2.59
336138.781000,-0.8,-0.309,0.559,4.85,3.33,0.46
336138.828000,-0.79,-0.308,0.539,3.66,2.81,0.82
336138.875000,-0.794,-0.319,0.571,2.01,3.88,1.68
336138.921000,-0.799,-0.297,0.547,-0.06,1.43,0.18
336138.968000,-0.793,-0.289,0.551,0.43,0.73,-0.85
336139.015000,-0.792,-0.301,0.552,-0.15,0.18,2.47
336139.062000,-0.794,-0.307,0.552,1.4,0.34,1.46
336139.109000,-0.799,-0.302,0.546,0.82,1.43,0.67
336139.156000,-0.795,-0.297,0.544,0.21,-0.67,0.27
336139.203000,-0.788,-0.302,0.541,-0.37,0.43,0.06
336139.250000,-0.79,-0.298,0.543,0.03,1.01,0.37
336139.296000,-0.793,-0.296,0.549,-0.09,0.58,0.7
336139.343000,-0.788,-0.296,0.541,-0.15,-1.31,0.4
336139.390000,-0.798,-0.288,0.55,-0.7,0.95,0.18
336139.437000,-0.797,-0.301,0.546,0.55,0.03,1.04
336139.484000,-0.798,-0.301,0.542,0.06,0.24,0.98
336139.531000,-0.802,-0.29,0.548,0.0,0.61,0.76
336139.578000,-0.8,-0.298,0.542,-0.27,0.21,1.31
336139.625000,-0.799,-0.306,0.547,0.76,-0.06,0.03
336139.671000,-0.799,-0.307,0.543,0.27,-0.34,0.09
336139.718000,-0.81,-0.305,0.552,-0.12,-0.31,0.31
336139.765000,-0.796,-0.291,0.547,-0.06,-0.4,-1.53
336139.812000,-0.791,-0.29,0.538,0.34,0.34,-0.49
336139.859000,-0.794,-0.299,0.547,1.62,-0.37,0.92
336139.906000,-0.801,-0.308,0.545,1.19,0.37,1.5
336139.953000,-0.809,-0.3,0.549,1.4,1.07,0.95
336140.000000,-0.799,-0.29,0.544,3.36,0.64,-0.27
336140.046000,-0.787,-0.28,0.531,4.82,3.78,-0.92
336140.093000,-0.785,-0.282,0.515,6.29,5.28,2.59
336140.140000,-0.813,-0.282,0.543,7.45,6.16,1.83
336140.187000,-0.813,-0.292,0.546,4.33,4.91,0.95
336140.234000,-0.816,-0.286,0.57,2.44,2.78,-0.24
336140.281000,-0.805,-0.288,0.552,2.78,0.03,-2.72
336140.328000,-0.801,-0.295,0.551,2.23,-1.53,-2.56
336140.375000,-0.806,-0.279,0.571,2.2,-1.98,-2.2
336140.421000,-0.807,-0.289,0.569,4.88,-4.67,-1.34
336140.468000,-0.796,-0.287,0.581,4.88,-8.39,-1.71
336140.515000,-0.784,-0.291,0.566,2.9,-10.38,-1.98
336140.562000,-0.791,-0.271,0.579,0.49,-9.86,-3.2
336140.609000,-0.779,-0.267,0.571,3.97,-12.73,-1.53
336140.656000,-0.779,-0.263,0.565,5.46,-13.0,-1.56
336140.703000,-0.755,-0.255,0.576,8.82,-10.56,1.68
336140.750000,-0.748,-0.242,0.563,19.96,-6.26,2.26
336140.796000,-0.792,-0.249,0.602,12.54,0.09,7.93
336140.843000,-0.799,-0.264,0.619,2.93,6.35,5.04
336140.890000,-0.78,-0.253,0.616,3.36,5.71,5.58
336140.937000,-0.794,-0.281,0.61,-9.4,8.94,3.36
336140.984000,-0.79,-0.273,0.607,-10.9,5.68,-0.89
336141.031000,-0.802,-0.268,0.615,-15.26,2.69,-1.07
336141.078000,-0.767,-0.299,0.558,-21.27,3.72,-5.28
336141.125000,-0.8,-0.294,0.556,-21.0,28.96,-14.07
336141.171000,-0.79,-0.238,0.549,-34.64,14.19,-9.52
336141.218000,-0.78,-0.265,0.497,-12.7,13.21,-6.2
336141.265000,-0.835,-0.297,0.505,-3.11,9.52,-1.28
336141.312000,-0.803,-0.296,0.531,-9.09,0.98,1.37
336141.359000,-0.812,-0.348,0.529,-8.88,-3.08,5.4
336141.406000,-0.79,-0.371,0.525,-7.97,-7.93,4.33
336141.453000,-0.788,-0.339,0.51,-0.31,-10.47,1.25
336141.500000,-0.796,-0.349,0.513,-7.35,-5.74,-7.63
336141.546000,-0.789,-0.345,0.476,-8.64,-4.43,-9.4
336141.593000,-0.791,-0.316,0.517,0.73,0.7,-6.74
336141.640000,-0.809,-0.337,0.524,-6.07,-5.25,-5.22
336141.687000,-0.774,-0.338,0.518,-16.21,-2.44,-1.89
336141.734000,-0.782,-0.338,0.537,-8.39,-2.29,0.58
336141.781000,-0.779,-0.359,0.487,4.49,1.4,1.43
336141.828000,-0.784,-0.349,0.497,11.44,1.71,1.4
336141.875000,-0.809,-0.377,0.467,4.64,8.48,3.66
336141.921000,-0.792,-0.337,0.526,36.65,16.51,0.21
336141.968000,-0.775,-0.305,0.493,19.26,10.53,7.93
336142.015000,-0.792,-0.336,0.517,1.13,18.43,9.31
336142.062000,-0.831,-0.301,0.509,0.49,8.97,14.31
336142.109000,-0.866,-0.334,0.513,-17.7,-2.5,15.44
336142.156000,-0.853,-0.33,0.489,-24.9,-3.39,12.76
336142.203000,-0.813,-0.33,0.52,-22.52,-7.39,17.73
336142.250000,-0.804,-0.306,0.453,-11.29,-5.46,9.98
336142.296000,-0.833,-0.318,0.479,1.04,-3.33,13.34
336142.343000,-0.866,-0.325,0.497,12.54,-3.51,9.19
336142.390000,-0.871,-0.316,0.476,0.89,-9.8,9.43
336142.437000,-0.824,-0.322,0.473,-0.89,-12.42,7.39
336142.484000,-0.801,-0.3,0.463,3.36,-9.09,2.9
336142.531000,-0.817,-0.306,0.469,5.31,-5.49,6.01
336142.578000,-0.823,-0.31,0.498,18.31,-2.9,-0.27
336142.625000,-0.826,-0.276,0.544,8.45,0.34,-2.32
336142.671000,-0.835,-0.32,0.548,12.45,17.79,-8.97
336142.718000,-0.856,-0.18,0.591,3.23,2.23,-12.18
336142.765000,-0.72,-0.206,0.557,2.66,-20.42,-8.79
336142.812000,-0.656,-0.2,0.472,1.83,-25.45,-10.9
336142.859000,-0.71,-0.248,0.461,-0.92,-0.21,-9.16
336142.906000,-1.115,-0.25,0.782,32.87,37.14,0.31
336142.953000,-1.015,-0.343,0.737,46.27,-11.57,-29.18
336143.000000,-0.593,-0.216,0.453,33.45,-26.06,-43.86
336143.046000,-0.534,-0.181,0.513,61.77,3.36,-21.64
336143.093000,-0.621,-0.233,0.636,44.47,16.36,-5.65
336143.140000,-0.941,-0.281,0.911,36.38,14.28,3.14
336143.187000,-0.946,-0.319,0.84,2.96,-3.94,-17.82
336143.234000,-0.75,-0.138,0.698,-21.7,-13.92,-13.64
336143.281000,-0.565,-0.032,0.423,-18.49,-25.67,26.0
336143.328000,-0.673,-0.119,0.431,-57.07,1.13,50.75
336143.375000,-0.927,-0.303,0.604,-41.69,1.62,64.85
336143.421000,-0.957,-0.339,0.685,-74.68,9.86,35.65
336143.468000,-0.801,-0.201,0.557,-44.04,-8.85,29.57
336143.515000,-0.657,-0.235,0.46,-21.79,-8.15,33.63
336143.562000,-0.832,-0.334,0.6,-12.3,9.61,18.37
336143.609000,-0.883,-0.295,0.56,-7.2,6.13,9.89
336143.656000,-0.832,-0.315,0.584,-16.27,8.15,-1.83
336143.703000,-0.831,-0.288,0.574,-1.25,3.23,-9.06
336143.750000,-0.779,-0.275,0.525,-2.01,4.18,-22.16
336143.796000,-0.817,-0.228,0.561,-13.06,0.52,-15.53
336143.843000,-0.793,-0.276,0.555,-25.3,-5.01,-9.43
336143.890000,-0.771,-0.242,0.548,-8.06,-1.74,-9.74
336143.937000,-0.804,-0.29,0.583,11.26,-7.78,-1.01
336143.984000,-0.791,-0.333,0.584,-5.1,-9.4,-1.16
336144.031000,-0.777,-0.294,0.576,3.08,-13.98,3.33
336144.078000,-0.764,-0.308,0.584,14.16,-13.61,7.32
336144.125000,-0.775,-0.294,0.6,-7.63,-20.39,5.04
336144.171000,-0.765,-0.258,0.558,-6.68,-19.1,5.01
336144.218000,-0.749,-0.249,0.606,0.24,-12.05,5.68
336144.265000,-0.774,-0.278,0.629,-14.68,-12.85,9.37
336144.312000,-0.756,-0.326,0.594,2.78,-2.2,2.56
336144.359000,-0.795,-0.252,0.646,33.94,0.06,-0.03
336144.406000,-0.761,-0.271,0.606,5.65,-10.41,4.27
336144.453000,-0.712,-0.293,0.6,0.06,-3.63,-6.35
336144.500000,-0.749,-0.255,0.617,-5.31,-3.51,-4.52
336144.546000,-0.747,-0.275,0.651,-9.55,-11.63,0.06
336144.593000,-0.728,-0.254,0.637,-13.73,-5.98,-9.19
336144.640000,-0.732,-0.267,0.626,-19.68,-10.07,-9.13
336144.687000,-0.7,-0.276,0.603,-18.86,-10.59,-3.48
336144.734000,-0.739,-0.279,0.584,8.42,3.69,14.8
336144.781000,-0.744,-0.33,0.656,-11.93,-1.1,16.54
336144.828000,-0.736,-0.322,0.595,-1.62,4.15,4.55
336144.875000,-0.752,-0.229,0.638,38.0,15.78,-0.03
336144.921000,-0.758,-0.318,0.653,11.17,1.83,-0.4
336144.968000,-0.708,-0.26,0.628,8.36,-4.06,-4.82
336145.015000,-0.75,-0.268,0.675,8.64,-1.19,-0.79
336145.062000,-0.731,-0.199,0.692,3.3,-4.88,-1.65
336145.109000,-0.711,-0.252,0.599,3.48,2.26,0.37
336145.156000,-0.71,-0.258,0.628,-5.34,1.89,5.4
336145.203000,-0.731,-0.283,0.644,5.07,4.76,0.58
336145.250000,-0.746,-0.286,0.647,12.76,9.52,2.08
336145.296000,-0.753,-0.285,0.584,30.67,17.91,-0.03
336145.343000,-0.745,-0.148,0.633,12.12,19.23,10.74
336145.390000,-0.78,-0.172,0.757,2.75,26.22,24.96
336145.437000,-0.766,-0.187,0.64,-1.01,7.32,26.06
336145.484000,-0.767,-0.191,0.632,-11.14,11.66,20.97
336145.531000,-0.785,-0.202,0.634,-2.96,11.38,26.03
336145.578000,-0.774,-0.176,0.586,-13.09,6.13,13.98
336145.625000,-0.827,-0.199,0.573,-14.65,4.7,11.05
336145.671000,-0.829,-0.138,0.599,-10.59,0.95,10.41
336145.718000,-0.833,-0.183,0.541,-23.04,-1.56,7.51
336145.765000,-0.811,-0.215,0.573,-24.32,-4.94,7.32
336145.812000,-0.834,-0.186,0.611,-11.93,-2.38,7.35
336145.859000,-0.844,-0.22,0.585,-2.2,5.68,-2.96
336145.906000,-0.811,-0.209,0.535,-2.56,-1.77,-7.14
336145.953000,-0.808,-0.182,0.567,-3.57,-2.2,-4.94
336146.000000,-0.779,-0.186,0.577,5.13,-3.45,-2.32
336146.046000,-0.781,-0.179,0.551,0.15,-0.21,-6.07
336146.093000,-0.835,-0.186,0.604,2.23,4.58,-4.76
336146.140000,-0.788,-0.21,0.555,2.29,0.15,-7.81
336146.187000,-0.797,-0.197,0.584,8.42,5.22,-5.01
336146.234000,-0.788,-0.212,0.499,9.28,13.4,-6.07
336146.281000,-0.825,-0.118,0.62,46.82,27.53,-18.01
336146.328000,-0.802,-0.222,0.541,20.6,15.5,-19.14
336146.375000,-0.81,-0.268,0.592,45.87,25.39,-30.67
336146.421000,-0.828,-0.147,0.578,74.5,16.02,-21.64
336146.468000,-0.835,-0.13,0.57,16.88,-0.12,-6.78
336146.515000,-0.857,-0.186,0.506,-13.49,-4.52,2.26
336146.562000,-0.793,-0.205,0.56,-9.83,-7.05,11.14
336146.609000,-0.819,-0.167,0.573,-9.67,-4.85,1.22
336146.656000,-0.819,-0.172,0.549,-17.33,-4.46,4.18
336146.703000,-0.805,-0.227,0.53,-7.6,3.81,-2.2
336146.750000,-0.85,-0.194,0.554,-11.14,9.77,-2.53
336146.796000,-0.849,-0.281,0.415,-2.75,2.23,-4.3
336146.843000,-0.798,-0.244,0.537,1.65,9.4,-6.32
336146.890000,-0.845,-0.25,0.516,3.48,13.92,-0.52
336146.937000,-0.798,-0.249,0.564,29.57,18.13,-9.19
336146.984000,-0.871,-0.068,0.6,1.98,1.28,18.83
336147.031000,-0.803,-0.126,0.552,-20.6,-16.72,7.05
336147.078000,-0.819,-0.213,0.567,-2.56,-24.66,10.16
336147.125000,-0.817,-0.185,0.581,1.53,-22.58,4.76
336147.171000,-0.781,-0.202,0.553,5.22,-30.4,6.29
336147.218000,-0.765,-0.17,0.548,16.24,-24.29,20.72
336147.265000,-0.806,-0.166,0.61,1.8,-17.06,16.75
336147.312000,-0.792,-0.184,0.595,0.82,-15.5,6.47
336147.359000,-0.803,-0.127,0.628,-1.92,-7.97,7.9
336147.406000,-0.783,-0.153,0.632,7.02,-8.82,2.59
336147.453000,-0.782,-0.132,0.619,2.01,-6.16,2.29
336147.500000,-0.766,-0.168,0.638,-8.67,-5.13,-0.89
336147.546000,-0.764,-0.172,0.631,-10.68,-3.48,-6.2
336147.593000,-0.767,-0.137,0.642,3.11,2.9,-4.58
336147.640000,-0.757,-0.147,0.631,-11.72,-4.06,-0.95
336147.687000,-0.762,-0.154,0.621,-9.74,-3.02,-3.11
336147.734000,-0.768,-0.159,0.634,11.05,-0.21,-2.44
336147.781000,-0.755,-0.172,0.656,3.05,0.67,-2.04
336147.828000,-0.766,-0.137,0.666,1.89,-4.64,1.83
336147.875000,-0.747,-0.138,0.667,4.79,1.89,-4.33
336147.921000,-0.744,-0.146,0.647,-5.28,-1.53,0.06
336147.968000,-0.749,-0.15,0.661,-8.79,-4.27,-0.15
336148.015000,-0.754,-0.167,0.629,-5.71,3.27,-6.56
336148.062000,-0.774,-0.162,0.647,-7.78,2.47,0.49
336148.109000,-0.749,-0.183,0.64,-5.65,2.78,-1.22
336148.156000,-0.77,-0.153,0.665,1.83,-0.55,2.62
336148.203000,-0.773,-0.178,0.655,10.62,-1.19,1.74
336148.250000,-0.767,-0.172,0.66,20.36,-0.95,0.73
336148.296000,-0.748,-0.161,0.64,15.63,-6.04,-0.89
336148.343000,-0.748,-0.136,0.686,8.94,-5.22,-0.09
336148.390000,-0.748,-0.13,0.677,4.46,0.55,-3.27
336148.437000,-0.746,-0.124,0.648,8.12,-1.19,-2.17
336148.484000,-0.75,-0.141,0.646,8.15,0.46,-1.43
336148.531000,-0.771,-0.155,0.688,16.42,2.72,-4.49
336148.578000,-0.739,-0.14,0.679,26.98,-1.31,-2.66
336148.625000,-0.74,-0.122,0.655,22.19,6.78,-8.85
336148.671000,-0.743,-0.116,0.691,19.17,1.13,-4.18
336148.718000,-0.761,-0.052,0.657,15.84,-1.01,-8.33
336148.765000,-0.734,-0.098,0.677,3.39,2.59,-3.51
336148.812000,-0.733,-0.073,0.652,17.06,2.9,-4.73
336148.859000,-0.757,-0.104,0.655,-5.04,3.48,1.04
336148.906000,-0.758,-0.091,0.691,-15.59,2.23,7.08
336148.953000,-0.769,-0.095,0.655,-14.83,2.93,7.11
336149.000000,-0.774,-0.118,0.728,-33.66,3.33,14.83
336149.046000,-0.721,-0.087,0.628,-15.29,-1.1,12.15
336149.093000,-0.748,-0.085,0.642,-30.46,5.74,21.42
336149.140000,-0.747,-0.079,0.651,-38.88,8.18,18.31
336149.187000,-0.752,-0.047,0.544,-26.43,6.71,28.17
336149.234000,-0.771,-0.077,0.605,-28.93,13.64,31.25
336149.281000,-0.756,-0.092,0.579,-5.86,17.3,27.71
336149.328000,-0.749,-0.054,0.614,4.09,24.96,23.71
336149.375000,-0.782,-0.074,0.622,4.52,11.75,18.37
336149.421000,-0.84,-0.107,0.647,6.2,20.05,4.03
336149.468000,-0.84,-0.021,0.628,20.33,23.83,-6.13
336149.515000,-0.85,-0.031,0.558,3.39,16.27,5.49
336149.562000,-0.874,-0.02,0.569,6.04,19.29,1.04
336149.609000,-0.88,-0.051,0.556,-5.95,4.88,5.16
336149.656000,-0.87,-0.109,0.555,-7.93,0.37,-7.29
336149.703000,-0.851,-0.054,0.598,10.96,0.15,-8.58
336149.750000,-0.85,-0.102,0.638,7.9,-9.61,-2.75
336149.796000,-0.866,-0.11,0.66,1.83,-20.75,-14.71
336149.843000,-0.803,-0.109,0.534,8.58,-29.48,-32.62
336149.890000,-0.836,-0.146,0.516,0.21,4.52,-51.15
336149.937000,-0.792,-0.257,0.449,6.87,22.58,-73.31
336149.984000,-0.901,-0.269,0.518,-8.09,43.67,-72.57
336150.031000,-0.948,-0.322,0.541,19.23,37.69,-48.04
336150.078000,-0.789,-0.464,0.44,-50.39,29.85,-78.83
336150.125000,-0.776,-0.595,0.42,-92.32,33.3,-101.35
336150.171000,-0.83,-0.703,0.294,-110.14,45.14,-117.92
336150.218000,-1.134,-0.728,0.359,-74.37,85.94,-115.39
336150.265000,-0.829,-0.797,0.31,-72.3,31.65,-113.93
336150.312000,-0.613,-0.644,0.079,-108.46,46.54,-148.14
336150.359000,-0.569,-0.702,0.058,-93.45,73.73,-123.14
336150.406000,-0.491,-0.829,-0.061,-83.62,62.07,-75.81
336150.453000,-0.519,-0.819,-0.082,-23.16,79.2,-48.31
336150.500000,-0.504,-0.878,-0.039,-18.46,56.58,-30.92
336150.546000,-0.375,-0.89,-0.224,4.64,47.94,-27.95
336150.593000,-0.343,-0.878,-0.242,3.91,55.51,-44.86
336150.640000,-0.249,-0.91,-0.304,37.26,79.07,-32.44
336150.687000,-0.191,-0.931,-0.262,67.42,83.65,-4.21
336150.734000,-0.247,-0.894,-0.125,111.18,86.61,6.59
336150.796000,-0.392,-0.747,-0.076,115.45,124.73,28.05
336150.843000,-0.483,-0.625,0.308,13.0,136.39,42.21
336150.906000,-0.529,-0.793,0.333,33.72,5.65,57.5
336150.953000,-0.581,-0.859,0.222,-8.24,-23.77,36.53
336151.000000,-0.504,-0.933,0.091,-43.49,-40.68,5.49
336151.046000,-0.325,-0.859,-0.092,-40.89,-32.75,-20.33
336151.093000,-0.281,-0.779,-0.122,-24.26,-13.46,-16.91
336151.140000,-0.379,-0.803,-0.018,-9.25,3.63,-7.23
336151.187000,-0.613,-0.841,-0.072,-20.29,17.79,9.92
336151.234000,-0.781,-1.051,0.016,-0.76,10.62,30.3
336151.281000,-0.499,-0.929,-0.12,7.57,10.96,10.28
336151.328000,-0.295,-0.877,-0.052,-0.43,30.73,-6.07
336151.375000,-0.341,-0.855,-0.032,10.28,31.37,-2.87
336151.421000,-0.482,-0.814,-0.053,4.88,41.23,7.32
336151.468000,-0.697,-0.898,0.094,26.98,48.95,27.04
336151.515000,-0.662,-0.952,0.19,31.77,15.72,35.34
336151.562000,-0.415,-0.852,0.166,13.34,2.72,6.74
336151.609000,-0.45,-0.901,0.179,-42.36,-1.71,-13.18
336151.656000,-0.568,-0.935,-0.041,-40.01,-32.29,-15.17
336151.703000,-0.7,-1.114,-0.131,-20.11,-14.07,-5.68
336151.750000,-0.472,-0.936,-0.234,-3.78,-21.36,-39.28
336151.796000,-0.345,-0.765,-0.14,3.39,15.81,-30.98
336151.843000,-0.363,-0.771,-0.083,16.27,11.02,-8.67
336151.890000,-0.359,-0.833,-0.115,5.31,14.25,6.81
336151.937000,-0.399,-0.887,-0.05,-1.25,23.93,1.56
336151.984000,-0.428,-0.911,-0.087,6.96,19.75,4.55
336152.031000,-0.526,-0.97,-0.048,-1.92,14.31,5.19
336152.078000,-0.474,-0.935,-0.058,-11.93,7.51,-7.14
336152.125000,-0.45,-0.894,-0.064,-11.17,14.98,-11.81
336152.171000,-0.424,-0.856,-0.12,-11.26,11.54,-6.35
336152.218000,-0.423,-0.85,-0.135,-11.47,11.47,2.9
336152.265000,-0.426,-0.862,-0.142,-9.67,11.63,4.67
336152.312000,-0.406,-0.892,-0.117,-11.78,13.61,7.51
336152.359000,-0.42,-0.906,-0.14,-10.04,9.06,5.77
336152.406000,-0.42,-0.941,-0.131,-16.51,9.43,6.04
336152.453000,-0.429,-0.937,-0.166,-19.5,7.51,1.77
336152.500000,-0.435,-0.952,-0.152,-15.44,5.68,-1.1
336152.546000,-0.428,-0.92,-0.18,-5.43,-2.2,-3.02
336152.593000,-0.425,-0.904,-0.153,-6.04,-3.17,-5.25
336152.656000,-0.415,-0.891,-0.204,-10.38,-1.4,-6.93
336152.703000,-0.418,-0.888,-0.193,-9.25,-3.3,-8.15
336152.750000,-0.408,-0.884,-0.227,-7.57,-5.37,-6.16
336152.796000,-0.401,-0.882,-0.22,-5.83,-4.85,-4.61
336152.843000,-0.396,-0.897,-0.249,-1.98,-6.29,-3.39
336152.890000,-0.365,-0.896,-0.291,-0.82,-3.23,-4.36
336152.937000,-0.357,-0.898,-0.298,1.31,5.22,-4.7
336152.984000,-0.35,-0.879,-0.262,3.14,3.94,-6.47
336153.031000,-0.328,-0.888,-0.228,0.64,7.87,-6.1
336153.078000,-0.357,-0.892,-0.218,-6.41,10.71,-7.45
336153.125000,-0.382,-0.943,-0.185,-6.29,9.52,-3.69
336153.171000,-0.355,-0.915,-0.188,-7.02,8.18,-7.66
336153.218000,-0.357,-0.914,-0.186,-12.97,13.43,-2.72
336153.265000,-0.378,-0.954,-0.219,-5.8,10.47,0.64
336153.312000,-0.36,-0.919,-0.244,-11.81,9.61,-2.93
336153.359000,-0.349,-0.914,-0.236,-17.67,16.79,-5.68
336153.406000,-0.365,-0.913,-0.247,-13.03,10.01,-2.96
336153.453000,-0.352,-0.935,-0.295,-14.77,17.58,-1.65
336153.500000,-0.373,-0.918,-0.276,-16.85,23.77,-5.8
336153.546000,-0.347,-0.95,-0.296,-16.14,21.42,-5.43
336153.593000,-0.338,-0.946,-0.337,-16.3,22.03,-11.35
336153.640000,-0.308,-0.962,-0.403,-12.12,24.14,-12.76
336153.687000,-0.351,-0.875,-0.345,-8.06,47.49,-11.35
336153.734000,-0.369,-0.886,-0.17,-11.11,42.88,-1.37
336153.796000,-0.286,-0.936,-0.33,-22.28,-12.12,-10.99
336153.843000,-0.192,-0.834,-0.536,-11.69,-2.81,-25.76
336153.890000,-0.166,-0.718,-0.525,-14.34,14.62,-30.73
336153.937000,-0.146,-0.66,-0.52,-11.75,11.35,-22.34
336153.984000,-0.111,-0.671,-0.548,-6.78,-1.4,-3.2
336154.031000,-0.094,-0.704,-0.576,1.71,-8.51,12.6
336154.078000,-0.114,-0.766,-0.621,7.57,-7.39,21.82
336154.125000,-0.171,-0.856,-0.643,16.05,-0.95,27.56
336154.171000,-0.202,-0.894,-0.631,25.33,3.97,24.57
336154.218000,-0.196,-0.826,-0.564,20.23,18.28,10.47
336154.265000,-0.212,-0.782,-0.447,20.51,17.27,12.15
336154.312000,-0.211,-0.804,-0.401,19.93,6.29,20.17
336154.359000,-0.165,-0.834,-0.391,19.75,3.91,17.27
336154.406000,-0.237,-0.817,-0.275,13.06,8.24,16.42
336154.453000,-0.376,-0.883,-0.214,15.59,-16.3,26.34
336154.500000,-0.397,-0.969,-0.256,9.16,-37.84,24.69
336154.546000,-0.315,-0.961,-0.327,-6.47,-47.12,2.14
336154.593000,-0.304,-0.984,-0.355,-7.32,-51.7,-3.42
336154.640000,-0.287,-0.979,-0.425,-3.08,-52.4,-9.09
336154.687000,-0.308,-0.968,-0.476,-4.76,-49.32,-21.42
336154.734000,-0.355,-0.917,-0.508,-6.38,-46.6,-28.2
336154.781000,-0.332,-0.851,-0.547,-13.21,-40.65,-30.34
336154.828000,-0.345,-0.823,-0.46,-11.41,-26.98,-23.59
336154.875000,-0.349,-0.795,-0.372,-7.23,-19.62,-20.81
336154.921000,-0.348,-0.807,-0.333,1.22,-17.0,-19.75
336154.968000,-0.309,-0.851,-0.292,7.84,-8.24,-17.67
336155.015000,-0.314,-0.818,-0.273,9.34,-1.5,-7.75
336155.062000,-0.288,-0.87,-0.219,7.9,11.38,-3.2
336155.109000,-0.318,-0.873,-0.181,6.65,12.63,15.53
336155.156000,-0.335,-0.967,-0.078,13.18,-7.05,39.28
336155.203000,-0.262,-0.973,-0.131,3.88,-23.32,24.99
336155.250000,-0.262,-0.924,-0.17,-12.57,-8.76,-9.16
336155.296000,-0.327,-0.886,-0.206,-11.9,-13.7,-3.33
336155.343000,-0.405,-0.924,-0.28,1.25,-6.71,18.4
336155.390000,-0.402,-0.924,-0.261,-18.77,-4.09,9.43
336155.437000,-0.297,-0.944,-0.311,-32.29,-15.14,-0.31
336155.484000,-0.262,-1.014,-0.405,-54.57,-18.68,-4.43
336155.531000,-0.246,-1.051,-0.456,-35.83,-18.83,-10.01
336155.578000,-0.269,-1.0,-0.462,-30.7,-0.46,-31.01
336155.625000,-0.331,-0.91,-0.298,-8.73,9.89,-29.02
336155.671000,-0.353,-0.878,-0.252,-8.45,0.09,-28.26
336155.718000,-0.366,-0.837,-0.265,-3.54,-32.26,-28.84
336155.765000,-0.348,-0.786,-0.306,-2.78,-40.28,-20.17
336155.812000,-0.312,-0.834,-0.349,-21.94,-17.88,-20.51
336155.875000,-0.361,-0.831,-0.309,-6.9,-44.62,-14.56
336155.921000,-0.293,-0.842,-0.384,-14.07,-59.66,-7.35
336155.968000,-0.255,-0.813,-0.333,-32.35,-69.22,-11.44
336156.015000,-0.345,-0.895,-0.305,-32.96,-76.88,-10.74
336156.062000,-0.458,-0.921,-0.362,-42.88,-108.4,-21.18
336156.109000,-0.481,-1.029,-0.324,-51.67,-104.89,-42.97
336156.156000,-0.485,-0.959,-0.264,-45.23,-115.7,-70.38
336156.203000,-0.442,-0.793,-0.163,-46.51,-118.14,-74.8
336156.250000,-0.47,-0.475,-0.058,-17.55,-127.45,-51.52
336156.296000,-0.486,-0.351,-0.048,-27.16,-143.68,6.07
336156.343000,-0.555,-0.464,-0.056,-8.18,-157.66,25.33
336156.390000,-0.573,-0.574,-0.29,-6.68,-132.33,83.9
336156.437000,-0.641,-0.652,-0.379,-43.89,-103.52,73.52
336156.484000,-0.668,-0.73,-0.491,-35.55,-68.3,67.84
336156.531000,-0.717,-0.604,-0.53,-10.74,-24.54,85.39
336156.578000,-0.754,-0.663,-0.405,48.49,27.99,95.77
336156.625000,-0.816,-0.548,-0.506,-51.52,26.92,72.91
336156.671000,-0.928,-0.594,-0.497,-105.84,49.38,46.42
336156.718000,-1.066,-0.431,-0.564,-96.65,53.83,52.86
336156.765000,-0.95,-0.535,-0.508,-92.14,30.73,37.39
336156.812000,-0.892,-0.442,-0.576,-68.91,5.07,21.06
336156.875000,-0.909,-0.284,-0.498,-51.45,-7.11,-4.12
336156.937000,-0.851,-0.2,-0.545,-59.05,-39.77,16.36
336156.984000,-0.759,-0.136,-0.607,-78.89,-48.71,11.44
336157.031000,-0.74,-0.073,-0.667,-97.08,-15.75,19.59
336157.078000,-0.736,-0.086,-0.574,-88.6,7.29,18.22
336157.125000,-0.869,0.005,-0.576,-31.65,-0.03,27.65
336157.171000,-0.875,-0.008,-0.599,-19.32,-3.81,37.05
336157.218000,-0.841,-0.143,-0.505,-3.94,-10.22,29.85
336157.265000,-0.892,-0.066,-0.526,14.16,5.95,15.9
336157.312000,-0.941,-0.091,-0.414,28.96,15.29,13.52
336157.359000,-0.89,-0.128,-0.346,45.59,-5.34,11.93
336157.406000,-0.868,-0.092,-0.437,26.86,-13.92,9.28
336157.453000,-0.888,-0.148,-0.438,-2.47,-1.43,24.35
336157.500000,-0.936,-0.193,-0.378,5.37,-1.25,26.7
336157.546000,-0.925,-0.211,-0.438,9.06,-8.94,25.85
336157.593000,-0.926,-0.193,-0.453,8.67,-0.43,19.29
336157.640000,-0.951,-0.157,-0.398,18.43,8.42,8.73
336157.687000,-0.968,-0.076,-0.375,23.56,10.04,8.0
336157.734000,-0.959,-0.052,-0.375,15.26,5.25,6.81
336157.781000,-0.953,-0.07,-0.425,11.23,-0.09,3.75
336157.828000,-0.986,-0.072,-0.38,34.52,8.55,0.52
336157.875000,-0.912,-0.153,-0.301,43.0,1.74,-8.79
336157.921000,-0.86,-0.129,-0.42,38.06,-6.59,-27.92
336157.968000,-0.852,-0.169,-0.463,35.8,15.32,-27.83
336158.015000,-0.911,-0.228,-0.38,65.98,22.68,-31.68
336158.062000,-0.882,-0.152,-0.455,62.07,1.95,-23.16
336158.109000,-0.816,-0.229,-0.501,42.63,4.43,-24.57
336158.156000,-0.881,-0.146,-0.532,54.84,-9.52,-6.53
336158.203000,-0.829,-0.175,-0.504,34.88,-20.45,11.05
336158.250000,-0.815,-0.167,-0.397,34.18,-32.47,12.39
336158.296000,-0.902,-0.171,-0.38,22.98,-53.65,22.92
336158.343000,-1.007,-0.239,-0.377,7.17,-62.41,14.25
336158.390000,-0.999,-0.295,-0.349,-6.07,-55.94,0.15
336158.437000,-0.975,-0.419,-0.236,-3.36,-40.86,-23.1
336158.484000,-1.047,-0.398,-0.231,23.99,-39.74,-47.24
336158.531000,-1.019,-0.396,-0.26,72.73,-38.76,-62.93
336158.578000,-0.849,-0.284,-0.203,105.87,-26.83,-48.59
336158.625000,-0.867,-0.401,-0.1,107.09,-25.64,-36.56
336158.671000,-0.908,-0.528,-0.115,70.5,-25.79,-41.57
336158.718000,-0.889,-0.651,-0.092,56.98,-18.22,-49.62
336158.765000,-0.799,-0.524,-0.111,48.71,-5.19,-51.45
336158.812000,-0.775,-0.529,-0.072,24.48,15.41,-49.35
336158.859000,-0.781,-0.475,-0.011,1.71,38.91,-48.19
336158.906000,-0.839,-0.63,0.106,-7.11,42.21,-52.43
336158.953000,-0.791,-0.704,0.059,4.06,29.73,-49.26
336159.000000,-0.658,-0.788,0.04,-33.08,39.34,-56.09
336159.046000,-0.539,-0.737,0.054,-28.02,42.33,-60.55
336159.093000,-0.325,-0.587,0.141,-117.83,45.01,-60.64
336159.140000,-0.218,-0.63,0.08,-123.02,-0.7,-42.94
336159.187000,-0.328,-0.618,-0.414,-188.06,-16.79,-49.99
336159.234000,-0.765,-0.84,-0.492,-166.08,11.84,-14.44
336159.281000,-1.015,-0.986,-0.544,-79.74,-15.14,-16.82
336159.328000,-0.862,-0.755,-0.472,-22.83,-32.04,-30.95
336159.375000,-0.68,-0.484,-0.365,-40.53,-22.98,-64.15
336159.421000,-0.531,-0.305,-0.417,-74.25,-44.71,-63.63
336159.468000,-0.491,-0.26,-0.557,-101.87,-48.46,-31.16
336159.515000,-0.655,-0.232,-0.641,-74.47,-45.5,22.03
336159.562000,-0.718,-0.289,-0.665,-62.65,-40.96,62.59
336159.609000,-0.755,-0.477,-0.671,-54.69,-24.23,43.18
336159.656000,-0.731,-0.485,-0.67,-47.7,-12.76,26.64
336159.703000,-0.691,-0.476,-0.735,-37.14,-11.99,9.25
336159.750000,-0.672,-0.464,-0.688,-14.53,-0.12,0.58
336159.796000,-0.69,-0.405,-0.632,-0.98,14.77,0.64
336159.843000,-0.668,-0.369,-0.643,-4.24,8.82,1.65
336159.890000,-0.651,-0.333,-0.696,-16.11,20.84,-1.62
336159.937000,-0.688,-0.365,-0.609,-27.83,21.09,-10.8
336159.984000,-0.603,-0.323,-0.782,-9.64,18.07,-6.38
336160.031000,-0.644,-0.355,-0.593,-41.47,34.97,-8.61
336160.078000,-0.606,-0.448,-0.77,-17.0,7.9,-8.45
336160.125000,-0.557,-0.39,-0.761,1.62,28.05,-21.03
336160.171000,-0.607,-0.418,-0.7,-30.58,32.44,-33.6
336160.218000,-0.506,-0.409,-0.877,-30.27,33.85,-51.61
336160.265000,-0.496,-0.305,-0.746,-22.37,58.81,-52.92
336160.312000,-0.439,-0.286,-0.84,-18.68,35.68,-40.8
336160.359000,-0.41,-0.308,-0.775,-54.78,51.42,-49.75
336160.406000,-0.367,-0.31,-0.903,-37.2,39.0,-18.71
336160.453000,-0.362,-0.34,-0.774,-42.91,26.06,-33.2
336160.500000,-0.281,-0.26,-0.96,-43.73,14.92,-23.68
336160.546000,-0.29,-0.29,-0.939,-26.25,26.37,-21.0
336160.593000,-0.263,-0.209,-0.911,-21.03,2.08,-21.7
336160.640000,-0.226,-0.206,-0.92,-20.81,13.55,-16.97
336160.687000,-0.275,-0.142,-0.854,-20.48,-1.07,-12.63
336160.734000,-0.274,-0.123,-0.904,-15.17,-13.06,1.92
336160.781000,-0.305,-0.121,-0.898,-24.2,-11.41,8.67
336160.828000,-0.357,-0.134,-0.847,-24.93,-32.99,16.72
336160.875000,-0.345,-0.135,-0.958,-24.75,-45.9,19.9
336160.921000,-0.371,-0.077,-0.913,-30.92,-30.52,7.81
336160.968000,-0.356,-0.12,-1.023,-27.25,-22.89,17.67
336161.015000,-0.415,-0.094,-0.92,-12.12,0.76,5.77
336161.062000,-0.396,-0.137,-0.95,6.29,-6.74,9.28
336161.109000,-0.439,-0.09,-0.871,-5.19,-6.13,-2.38
336161.156000,-0.438,-0.083,-0.861,3.14,-17.37,-10.41
336161.203000,-0.438,0.019,-0.977,7.84,-15.29,-15.17
336161.250000,-0.432,-0.009,-0.841,-9.0,-1.71,3.3
336161.296000,-0.414,-0.083,-0.921,-1.98,-13.15,6.35
336161.343000,-0.424,-0.09,-0.909,3.08,-5.16,3.05
336161.390000,-0.463,-0.102,-0.814,24.2,-16.51,6.71
336161.437000,-0.416,-0.083,-0.977,64.94,-31.68,16.3
336161.484000,-0.472,-0.105,-0.78,1.34,-9.19,-4.43
336161.531000,-0.468,-0.105,-0.897,14.53,-20.11,11.35
336161.578000,-0.496,-0.136,-0.826,-10.65,-2.17,3.91
336161.625000,-0.486,-0.13,-0.851,10.93,-11.78,9.74
336161.671000,-0.471,-0.142,-0.892,-6.26,0.58,0.27
336161.718000,-0.488,-0.112,-0.869,8.76,-1.59,4.33
336161.765000,-0.49,-0.112,-0.901,3.48,3.63,2.38
336161.812000,-0.504,-0.113,-0.833,4.64,3.33,0.15
336161.859000,-0.497,-0.093,-0.856,-1.1,1.28,-2.23
336161.906000,-0.493,-0.1,-0.855,0.15,2.53,0.24
336161.953000,-0.5,-0.089,-0.854,-4.24,0.18,1.22
336162.000000,-0.486,-0.107,-0.862,-1.98,0.0,3.72
336162.046000,-0.496,-0.106,-0.845,-1.83,-1.71,1.56
336162.093000,-0.507,-0.11,-0.847,-2.14,-2.96,3.2
336162.140000,-0.498,-0.118,-0.849,-2.23,-4.12,1.83
336162.187000,-0.505,-0.103,-0.859,-6.59,-4.24,0.0
336162.234000,-0.503,-0.083,-0.854,2.01,-0.52,5.55
336162.281000,-0.504,-0.093,-0.87,2.44,4.67,1.1
336162.328000,-0.508,-0.057,-0.842,-3.02,-1.56,-0.31
336162.375000,-0.497,-0.092,-0.873,-3.94,-1.13,2.9
336162.421000,-0.508,-0.102,-0.851,-2.14,1.1,2.53
336162.468000,-0.506,-0.108,-0.848,-0.79,0.46,2.41
336162.515000,-0.496,-0.105,-0.861,-1.19,2.47,-2.2
336162.562000,-0.496,-0.091,-0.858,0.43,3.6,-0.82
336162.609000,-0.504,-0.083,-0.85,-0.12,2.72,-0.7
336162.656000,-0.503,-0.094,-0.857,0.67,2.23,-0.21
336162.703000,-0.505,-0.085,-0.832,-0.52,3.88,-2.78
336162.750000,-0.496,-0.074,-0.845,-1.65,0.55,-2.5
336162.796000,-0.498,-0.071,-0.837,1.1,2.62,2.87
336162.843000,-0.492,-0.086,-0.849,-1.92,-2.11,1.19
336162.890000,-0.506,-0.068,-0.855,1.43,1.92,1.46
336162.937000,-0.489,-0.075,-0.871,-3.75,-1.16,1.34
336162.984000,-0.493,-0.077,-0.862,-2.99,-0.09,1.43
336163.031000,-0.492,-0.078,-0.853,-2.5,1.1,1.62
336163.078000,-0.501,-0.158,-0.819,0.85,-1.4,3.3
336163.125000,-0.461,-0.327,-0.848,10.07,-11.05,2.87
336163.171000,-0.389,-0.632,-0.976,4.52,-30.3,11.08
336163.218000,-0.334,-1.165,-1.24,-1.98,-31.65,-17.82
336163.265000,-0.433,-0.992,-1.554,26.89,9.06,-146.98
336163.312000,-0.5,-0.628,-1.8,-0.82,51.09,-168.83
336163.359000,-0.675,-0.44,-1.829,-0.73,118.08,-178.26
336163.406000,-0.743,-0.31,-1.665,-49.17,183.36,-187.44
336163.453000,-0.671,-0.277,-1.33,-45.75,193.95,-162.42
336163.500000,-0.393,-0.242,-1.562,-70.38,174.26,-150.09
336163.546000,-0.347,-0.078,-1.52,-62.01,212.87,-126.8
336163.593000,-0.315,0.08,-1.492,-49.17,230.08,-102.15
336163.640000,-0.246,0.268,-1.586,-68.7,238.56,-87.44
336163.687000,-0.324,0.563,-1.334,-68.03,267.53,-55.97
336163.734000,-0.425,0.727,-1.012,-94.97,269.02,15.63
336163.781000,-0.409,0.519,-0.894,-130.92,240.7,94.61
336163.828000,-0.373,0.249,-0.709,-163.18,212.2,112.64
336163.875000,-0.421,0.117,-0.471,-181.62,204.5,133.73
336163.921000,-0.41,-0.066,-0.268,-194.46,164.13,146.28
336163.968000,-0.432,-0.263,-0.323,-201.18,136.69,175.91
336164.015000,-0.553,-0.546,-0.266,-196.66,131.17,184.58
336164.062000,-0.679,-0.824,-0.098,-176.79,112.7,191.69
336164.109000,-0.855,-0.975,-0.005,-212.2,74.8,188.36
336164.156000,-0.743,-1.297,-0.185,-167.0,27.47,195.9
336164.203000,-0.764,-1.389,-0.079,-162.97,37.84,186.65
336164.250000,-0.978,-1.515,-0.067,-192.05,-29.24,137.0
336164.296000,-0.659,-1.392,-0.381,-102.05,-67.81,149.24
336164.343000,-0.749,-1.42,-0.315,-150.58,-84.6,62.26
336164.390000,-0.693,-1.346,-0.532,-154.88,-107.46,56.49
336164.437000,-0.658,-1.221,-0.655,-136.42,-139.38,30.0
336164.484000,-0.661,-1.237,-0.769,-113.99,-146.73,23.32
336164.531000,-0.676,-1.051,-0.801,-98.76,-152.65,-11.29
336164.578000,-0.735,-0.871,-0.893,-119.33,-171.82,-52.58
336164.625000,-0.781,-0.506,-1.188,-78.31,-183.45,-20.66
336164.671000,-0.863,-0.566,-0.832,-156.13,-190.47,-91.04
336164.718000,-0.699,-0.614,-1.048,-102.66,-180.12,-104.53
336164.765000,-0.693,-0.497,-0.97,-26.49,-140.08,-69.28
336164.812000,-0.65,-0.542,-0.978,12.05,-113.9,-42.02
336164.859000,-0.604,-0.389,-0.854,-19.35,-74.65,-49.35
336164.906000,-0.564,-0.569,-0.784,-59.21,-61.19,-68.67
336164.953000,-0.575,-0.583,-0.676,26.52,-10.62,-24.75
336165.000000,-0.552,-0.553,-0.556,2.14,20.45,-40.96
336165.046000,-0.631,-0.622,-0.399,21.7,4.21,-28.08
336165.093000,-0.579,-0.615,-0.467,-9.74,11.35,-37.2
336165.140000,-0.495,-0.61,-0.537,-9.16,5.68,-33.23
336165.187000,-0.559,-0.633,-0.343,-5.01,37.32,-23.74
336165.234000,-0.509,-0.648,-0.473,-21.18,31.68,-13.15
336165.281000,-0.566,-0.692,-0.314,6.96,4.3,2.08
336165.328000,-0.482,-0.801,-0.524,-1.5,-6.41,-5.01
336165.375000,-0.548,-0.78,-0.333,-4.61,-8.67,-10.99
336165.421000,-0.503,-0.773,-0.398,11.6,-14.56,2.23
336165.468000,-0.503,-0.737,-0.382,3.02,-15.9,-0.4
336165.515000,-0.521,-0.753,-0.392,-2.78,-18.77,5.13
336165.562000,-0.517,-0.757,-0.445,-9.58,-13.34,1.98
336165.609000,-0.552,-0.788,-0.326,-19.87,9.55,-10.01
336165.656000,-0.546,-0.783,-0.365,-1.86,-5.95,-3.97
336165.703000,-0.508,-0.766,-0.425,-7.6,-3.14,-8.79
336165.750000,-0.536,-0.736,-0.402,-3.66,0.76,-5.01
336165.796000,-0.519,-0.775,-0.412,-12.39,-6.2,-13.89
336165.843000,-0.536,-0.755,-0.371,-9.98,2.5,-21.36
336165.890000,-0.524,-0.747,-0.401,-10.22,-4.36,-18.49
336165.937000,-0.503,-0.735,-0.42,-1.8,-14.01,-8.48
336165.984000,-0.488,-0.742,-0.424,-5.04,-8.85,-11.87
336166.031000,-0.489,-0.715,-0.4,-4.88,-14.92,-4.76
336166.078000,-0.483,-0.737,-0.451,-10.77,-13.98,-4.09
336166.125000,-0.506,-0.725,-0.42,-8.21,-6.56,0.52
336166.171000,-0.512,-0.748,-0.434,-4.52,-10.44,3.91
336166.218000,-0.523,-0.756,-0.433,-8.97,-7.17,-0.92
336166.265000,-0.506,-0.751,-0.426,-1.07,-6.04,1.74
336166.312000,-0.497,-0.75,-0.45,-2.75,-3.85,-0.37
336166.359000,-0.512,-0.751,-0.412,-0.34,-2.62,1.1
336166.406000,-0.511,-0.726,-0.434,-0.37,-4.18,1.46
336166.453000,-0.517,-0.73,-0.431,-0.27,-0.34,5.01
336166.500000,-0.518,-0.725,-0.42,-3.23,-0.09,2.35
336166.546000,-0.527,-0.72,-0.398,0.95,2.56,6.47
336166.593000,-0.538,-0.726,-0.37,-5.07,0.03,3.78
336166.640000,-0.535,-0.755,-0.391,-1.4,-2.35,4.18
336166.687000,-0.545,-0.749,-0.381,0.7,-2.26,3.39
336166.734000,-0.549,-0.763,-0.393,3.63,-3.05,4.03
336166.781000,-0.549,-0.749,-0.392,-2.14,-6.16,1.16
336166.828000,-0.544,-0.72,-0.424,0.46,-7.39,2.81
336166.875000,-0.523,-0.698,-0.447,3.3,-3.94,1.37
336166.921000,-0.534,-0.663,-0.433,2.84,0.12,6.13
336166.968000,-0.55,-0.72,-0.428,-7.11,0.18,6.23
336167.015000,-0.572,-0.787,-0.442,0.18,1.07,8.82
336167.062000,-0.583,-0.778,-0.422,-3.05,4.79,4.7
336167.109000,-0.552,-0.803,-0.42,-1.43,1.04,-5.49
336167.156000,-0.539,-0.744,-0.409,6.35,6.87,-8.55
336167.203000,-0.542,-0.692,-0.405,8.82,7.39,-6.9
336167.250000,-0.556,-0.697,-0.406,6.29,3.78,-4.3
336167.296000,-0.549,-0.68,-0.388,6.74,3.3,-1.95
336167.343000,-0.544,-0.699,-0.375,6.47,-0.95,0.12
336167.390000,-0.535,-0.676,-0.386,3.75,-0.52,0.64
336167.437000,-0.541,-0.714,-0.373,2.35,-2.08,7.69
336167.484000,-0.55,-0.748,-0.363,3.54,-5.98,6.96
336167.531000,-0.553,-0.744,-0.385,-0.27,-6.96,4.43
336167.578000,-0.552,-0.774,-0.414,2.2,-6.13,4.52
336167.625000,-0.547,-0.779,-0.417,10.68,-3.27,5.58
336167.671000,-0.54,-0.766,-0.391,10.35,1.89,2.53
336167.718000,-0.57,-0.725,-0.368,11.23,-1.04,4.12
336167.765000,-0.544,-0.755,-0.391,-0.21,-4.88,-0.15
336167.812000,-0.548,-0.757,-0.384,-4.52,-4.03,-1.92
336167.875000,-0.571,-0.839,-0.383,-7.02,-7.14,-6.07
336167.921000,-0.521,-0.82,-0.49,-15.05,-12.67,-24.45
336167.968000,-0.49,-0.766,-0.457,16.54,2.14,-7.57
336168.015000,-0.505,-0.798,-0.383,10.25,17.85,-8.42
336168.062000,-0.53,-0.838,-0.321,20.05,17.7,-4.76
336168.109000,-0.556,-0.819,-0.294,23.47,14.53,-13.82
336168.156000,-0.559,-0.744,-0.246,21.39,9.31,-19.2
336168.203000,-0.52,-0.674,-0.272,10.1,5.98,-14.25
336168.250000,-0.524,-0.706,-0.263,3.11,3.6,-10.59
336168.296000,-0.551,-0.772,-0.264,13.46,-1.4,1.16
336168.343000,-0.544,-0.794,-0.297,19.35,-6.41,1.8
336168.390000,-0.502,-0.807,-0.318,21.18,-8.39,3.23
336168.437000,-0.49,-0.849,-0.273,12.63,-6.38,-3.6
336168.484000,-0.456,-0.857,-0.264,14.98,-9.58,-2.5
336168.531000,-0.452,-0.864,-0.282,2.99,-3.81,-7.45
336168.578000,-0.461,-0.84,-0.244,9.13,0.64,-5.89
336168.625000,-0.441,-0.795,-0.273,6.96,-0.82,-2.84
336168.671000,-0.462,-0.774,-0.273,-2.26,2.81,-4.97
336168.718000,-0.465,-0.779,-0.286,-0.12,7.35,6.84
336168.765000,-0.498,-0.883,-0.273,7.6,7.78,13.18
336168.812000,-0.501,-0.913,-0.301,10.77,8.42,10.62
336168.859000,-0.498,-0.873,-0.315,0.09,18.77,12.76
336168.906000,-0.526,-0.929,-0.217,26.09,14.22,8.73
336168.953000,-0.518,-0.901,-0.225,25.64,9.64,-1.25
336169.000000,-0.53,-0.914,-0.177,27.62,5.58,-7.17
336169.046000,-0.511,-0.878,-0.158,18.95,1.77,-18.71
336169.093000,-0.479,-0.828,-0.16,18.37,0.21,-17.73
336169.140000,-0.453,-0.805,-0.144,12.51,0.92,-18.71
336169.187000,-0.448,-0.773,-0.115,8.76,-0.21,-12.42
336169.234000,-0.427,-0.804,-0.161,7.29,-4.39,-4.64
336169.281000,-0.44,-0.848,-0.177,-1.34,-1.31,-3.91
336169.328000,-0.438,-0.866,-0.196,-0.55,-2.29,4.73
336169.375000,-0.439,-0.972,-0.19,-0.73,-2.87,3.2
336169.421000,-0.412,-1.016,-0.208,7.78,-2.04,1.83
336169.468000,-0.323,-1.037,-0.269,-1.53,3.14,-11.63
336169.515000,-0.313,-0.93,-0.235,23.1,17.0,-12.39
336169.562000,-0.341,-0.887,-0.175,22.49,30.61,-5.31
336169.609000,-0.472,-0.874,-0.046,23.9,26.09,-2.99
336169.656000,-0.536,-0.846,0.006,12.54,17.18,-7.87
336169.703000,-0.52,-0.767,-0.001,12.42,1.01,-6.87
336169.750000,-0.485,-0.747,-0.03,5.74,-8.06,0.64
336169.796000,-0.469,-0.751,-0.043,5.71,-22.71,16.72
336169.859000,-0.449,-0.857,-0.093,-6.59,-37.42,23.59
336169.906000,-0.439,-0.965,-0.231,-51.3,-60.12,1.8
336169.953000,-0.413,-0.971,-0.412,-80.81,-68.18,-15.69
336170.000000,-0.389,-0.965,-0.382,-90.58,-46.57,-22.61
336170.046000,-0.305,-0.952,-0.342,-62.38,-21.18,-11.14
336170.093000,-0.317,-1.002,-0.185,-47.06,15.17,-12.02
336170.140000,-0.358,-0.901,-0.09,-6.07,31.37,-12.51
336170.187000,-0.401,-0.75,-0.029,49.87,46.3,9.31
336170.234000,-0.437,-0.643,-0.051,23.68,42.63,4.03
336170.281000,-0.533,-0.647,0.01,30.37,26.76,32.17
336170.328000,-0.525,-0.699,-0.124,-9.58,-3.11,34.91
336170.375000,-0.484,-0.74,-0.255,-31.83,-21.33,43.49
336170.421000,-0.469,-0.86,-0.377,-24.05,-25.03,55.73
336170.468000,-0.492,-0.994,-0.455,-31.28,-11.54,48.4
336170.515000,-0.532,-0.985,-0.436,-37.14,-14.95,29.18
336170.562000,-0.56,-0.867,-0.461,-18.8,-14.74,32.23
336170.609000,-0.592,-0.749,-0.409,-5.01,-15.17,45.81
336170.656000,-0.64,-0.646,-0.37,-13.37,-6.78,53.29
336170.703000,-0.688,-0.67,-0.302,-26.7,4.18,47.21
336170.750000,-0.753,-0.667,-0.268,-30.85,10.25,28.17
336170.796000,-0.789,-0.668,-0.233,-13.0,11.41,25.57
336170.843000,-0.73,-0.679,-0.335,-37.57,1.92,3.17
336170.890000,-0.741,-0.718,-0.325,-25.45,-5.16,-6.87
336170.937000,-0.687,-0.632,-0.433,1.28,-12.42,1.37
336170.984000,-0.671,-0.625,-0.425,-15.29,-6.44,-5.65
336171.031000,-0.67,-0.608,-0.412,-18.86,-5.77,-3.54
336171.078000,-0.664,-0.615,-0.439,-14.4,-1.43,1.07
336171.125000,-0.672,-0.622,-0.454,-8.76,2.32,2.38
336171.171000,-0.706,-0.618,-0.412,-5.52,3.72,-0.52
336171.218000,-0.672,-0.628,-0.432,-6.68,2.26,-0.73
336171.265000,-0.672,-0.616,-0.444,-7.66,3.66,-3.63
336171.312000,-0.678,-0.627,-0.447,-0.49,4.61,-1.19
336171.359000,-0.688,-0.614,-0.398,6.38,7.29,-0.92
336171.406000,-0.675,-0.58,-0.372,4.91,5.31,-1.89
336171.453000,-0.684,-0.572,-0.361,-0.7,5.28,-2.35
336171.500000,-0.695,-0.561,-0.354,6.84,3.66,-0.09
336171.546000,-0.694,-0.554,-0.357,4.36,-0.31,0.21
336171.593000,-0.688,-0.591,-0.38,2.23,-3.42,1.25
336171.640000,-0.691,-0.602,-0.396,1.46,-8.27,1.19
336171.687000,-0.671,-0.601,-0.422,-4.97,-8.3,0.21
336171.734000,-0.653,-0.615,-0.425,-4.88,-6.29,1.25
336171.781000,-0.682,-0.596,-0.401,5.77,-3.14,4.3
336171.828000,-0.686,-0.592,-0.4,2.69,-3.66,4.76
336171.875000,-0.693,-0.604,-0.388,2.59,-1.74,5.4
336171.921000,-0.696,-0.591,-0.385,6.71,-1.25,5.04
336171.968000,-0.696,-0.587,-0.366,6.23,-1.01,6.78
336172.015000,-0.708,-0.589,-0.351,2.04,-0.55,9.19
336172.062000,-0.719,-0.596,-0.346,7.2,-2.17,8.18
336172.109000,-0.716,-0.615,-0.366,5.46,2.11,5.31
336172.156000,-0.736,-0.608,-0.332,7.11,-3.02,6.71
336172.203000,-0.714,-0.615,-0.385,10.99,-7.93,5.68
336172.250000,-0.712,-0.59,-0.383,-0.4,-0.67,0.15
336172.296000,-0.727,-0.564,-0.381,0.34,-1.65,4.18
336172.343000,-0.725,-0.604,-0.389,-1.1,-1.1,5.55
336172.390000,-0.73,-0.61,-0.385,1.07,-1.16,1.89
336172.437000,-0.724,-0.595,-0.382,-0.58,1.43,1.22
336172.484000,-0.722,-0.599,-0.361,1.77,3.63,2.66
336172.531000,-0.729,-0.609,-0.355,3.11,5.22,1.77
336172.578000,-0.735,-0.597,-0.355,4.58,4.03,1.34
336172.625000,-0.734,-0.598,-0.356,1.53,2.5,-2.14
336172.671000,-0.725,-0.61,-0.347,6.74,1.71,0.31
336172.718000,-0.727,-0.599,-0.355,7.14,-0.37,-3.02
336172.765000,-0.726,-0.629,-0.335,14.71,-0.18,-2.9
336172.812000,-0.735,-0.588,-0.309,17.98,-0.61,-0.92
336172.859000,-0.733,-0.563,-0.329,8.18,-1.01,-1.86
336172.906000,-0.729,-0.563,-0.303,3.08,-2.2,-2.38
336172.953000,-0.727,-0.538,-0.293,-0.64,-3.66,1.53
336173.000000,-0.708,-0.542,-0.326,-8.33,-3.69,5.77
336173.046000,-0.699,-0.517,-0.364,-18.68,-0.82,4.12
336173.093000,-0.736,-0.559,-0.325,-21.91,-2.35,10.25
336173.140000,-0.716,-0.599,-0.401,-21.18,0.21,7.11
336173.187000,-0.734,-0.588,-0.388,-13.28,1.95,7.17
336173.234000,-0.736,-0.606,-0.397,-1.86,3.45,10.99
336173.281000,-0.745,-0.612,-0.376,-1.74,5.28,8.48
336173.328000,-0.742,-0.582,-0.372,-1.31,5.25,3.33
336173.375000,-0.744,-0.558,-0.359,-2.93,5.83,1.16
336173.421000,-0.755,-0.536,-0.344,0.0,4.76,2.75
336173.468000,-0.76,-0.538,-0.342,-0.73,3.08,5.16
336173.515000,-0.758,-0.533,-0.35,0.37,0.34,1.83
336173.562000,-0.741,-0.525,-0.362,-5.77,-2.99,1.83
336173.609000,-0.744,-0.533,-0.395,-14.22,-0.73,1.28
336173.656000,-0.738,-0.564,-0.424,-14.68,1.22,0.58
336173.703000,-0.738,-0.548,-0.435,-17.67,1.8,-3.08
336173.750000,-0.729,-0.517,-0.454,-19.53,4.76,-6.16
336173.796000,-0.736,-0.543,-0.428,-13.09,6.56,-0.06
336173.843000,-0.741,-0.511,-0.443,-9.49,6.59,1.22
336173.890000,-0.76,-0.52,-0.409,-6.96,6.93,2.81
336173.937000,-0.762,-0.537,-0.406,-2.26,2.81,2.29
336173.984000,-0.762,-0.512,-0.408,1.01,0.37,-2.5
336174.031000,-0.76,-0.523,-0.396,4.15,-2.17,-1.1
336174.078000,-0.745,-0.519,-0.418,3.97,-4.64,-3.45
336174.125000,-0.741,-0.513,-0.418,2.69,-4.88,-5.62
336174.171000,-0.738,-0.516,-0.426,4.64,-4.79,-3.78
336174.218000,-0.736,-0.501,-0.43,1.68,-4.12,-4.61
336174.265000,-0.731,-0.502,-0.438,2.29,-2.53,-2.75
336174.312000,-0.725,-0.517,-0.434,2.08,0.67,-1.25
336174.359000,-0.734,-0.516,-0.421,2.99,0.0,1.07
336174.406000,-0.736,-0.509,-0.422,1.65,1.53,1.16
336174.453000,-0.739,-0.525,-0.414,2.17,1.59,2.9
336174.500000,-0.739,-0.522,-0.419,0.18,1.13,3.14
336174.546000,-0.738,-0.533,-0.404,2.32,1.4,2.96
336174.593000,-0.744,-0.53,-0.407,0.55,0.52,1.95
336174.640000,-0.738,-0.529,-0.417,0.89,1.68,1.56
336174.687000,-0.747,-0.526,-0.412,0.09,1.62,1.62
336174.734000,-0.742,-0.53,-0.412,0.37,0.85,1.22
336174.781000,-0.736,-0.532,-0.412,-1.25,0.46,1.31
336174.828000,-0.733,-0.531,-0.424,-1.16,1.25,0.37
336174.875000,-0.746,-0.532,-0.407,-1.8,2.01,1.74
336174.921000,-0.742,-0.522,-0.421,1.56,0.79,1.22
336174.968000,-0.742,-0.512,-0.411,-0.67,0.92,1.25
336175.015000,-0.738,-0.539,-0.414,0.4,0.43,2.29
336175.062000,-0.742,-0.512,-0.421,-1.83,1.01,0.92
336175.109000,-0.741,-0.531,-0.424,2.23,0.43,0.89
336175.156000,-0.744,-0.51,-0.423,-0.21,0.06,-0.27
336175.203000,-0.738,-0.532,-0.423,1.43,0.34,1.07
336175.250000,-0.741,-0.529,-0.426,-1.37,0.64,0.98
336175.296000,-0.737,-0.519,-0.419,1.98,0.89,0.34
336175.343000,-0.743,-0.512,-0.423,-0.95,0.82,0.58
336175.390000,-0.748,-0.532,-0.414,2.29,1.07,1.8
336175.437000,-0.742,-0.512,-0.417,0.21,-0.06,-0.24
336175.484000,-0.743,-0.517,-0.408,2.93,-0.49,1.07
336175.531000,-0.753,-0.494,-0.417,-0.03,-1.16,0.55
336175.578000,-0.77,-0.499,-0.412,-0.37,-1.59,2.2
336175.625000,-0.771,-0.483,-0.405,4.76,-2.84,2.5
336175.671000,-0.816,-0.442,-0.317,16.85,-4.24,5.58
336175.718000,-0.807,-0.381,-0.303,20.84,-17.46,6.2
336175.765000,-0.748,-0.427,-0.36,18.4,-16.39,20.36
336175.812000,-0.744,-0.525,-0.363,14.89,-13.49,25.88
336175.859000,-0.777,-0.562,-0.397,0.61,-11.05,18.01
336175.906000,-0.793,-0.582,-0.401,12.36,-6.04,15.26
336175.953000,-0.795,-0.559,-0.364,15.08,-4.91,13.64
336176.000000,-0.809,-0.54,-0.345,6.59,-1.95,7.51
336176.046000,-0.813,-0.538,-0.319,17.4,-0.58,10.62
336176.093000,-0.806,-0.551,-0.297,21.64,-3.05,8.15
336176.140000,-0.825,-0.492,-0.286,9.25,-0.4,0.95
336176.187000,-0.805,-0.477,-0.293,6.96,1.98,2.14
336176.234000,-0.813,-0.486,-0.27,8.42,1.8,5.74
336176.281000,-0.822,-0.485,-0.262,2.11,1.62,3.57
336176.328000,-0.832,-0.489,-0.261,1.56,1.01,3.08
336176.375000,-0.847,-0.485,-0.259,0.85,0.06,2.78
336176.421000,-0.844,-0.503,-0.27,1.1,-2.29,1.07
336176.468000,-0.834,-0.469,-0.278,-0.46,-2.35,-1.01
336176.515000,-0.834,-0.485,-0.299,-4.21,-2.87,-0.64
336176.562000,-0.832,-0.494,-0.285,-0.82,-1.22,-0.37
336176.609000,-0.829,-0.468,-0.293,-3.54,-1.28,-0.79
336176.656000,-0.831,-0.517,-0.285,-0.79,-0.49,1.5
336176.703000,-0.845,-0.467,-0.278,5.04,-0.43,-0.85
336176.750000,-0.835,-0.484,-0.276,0.0,-1.74,1.19
336176.796000,-0.836,-0.495,-0.262,4.97,-1.56,0.46
336176.843000,-0.821,-0.499,-0.263,4.49,-4.67,-0.46
336176.890000,-0.831,-0.458,-0.259,3.75,-4.36,-3.57
336176.937000,-0.821,-0.471,-0.256,2.47,-3.39,0.64
336176.984000,-0.832,-0.47,-0.251,0.4,-4.33,-0.24
336177.031000,-0.849,-0.477,-0.264,3.51,-4.91,0.73
336177.078000,-0.86,-0.472,-0.258,5.98,-5.46,2.23
336177.125000,-0.854,-0.461,-0.282,2.62,-5.95,1.62
336177.171000,-0.833,-0.449,-0.267,4.3,-4.39,4.43
336177.218000,-0.823,-0.436,-0.243,1.19,-2.96,6.5
336177.265000,-0.814,-0.443,-0.221,0.12,-3.45,8.15
336177.312000,-0.82,-0.444,-0.21,0.12,-2.08,8.55
336177.359000,-0.83,-0.504,-0.24,10.19,-3.08,11.29
336177.406000,-0.873,-0.496,-0.25,30.24,2.75,16.6
336177.453000,-0.926,-0.528,-0.222,24.99,2.11,13.55
336177.500000,-0.905,-0.515,-0.218,7.69,-0.61,-4.03
336177.546000,-0.842,-0.466,-0.202,9.25,-3.45,-5.71
336177.593000,-0.82,-0.419,-0.189,16.82,-1.62,-3.63
336177.640000,-0.802,-0.412,-0.177,18.56,-2.81,-1.16
336177.687000,-0.844,-0.385,-0.107,38.91,-1.77,13.79
336177.734000,-0.898,-0.443,-0.074,31.1,-1.46,15.9
336177.781000,-0.953,-0.471,-0.019,34.97,-11.84,16.69
336177.828000,-0.948,-0.439,-0.094,18.62,-15.29,5.98
336177.875000,-0.911,-0.427,-0.118,4.88,-21.49,0.95
336177.921000,-0.88,-0.426,-0.135,6.53,-17.21,4.76
336177.968000,-0.865,-0.428,-0.131,-13.12,-11.38,-0.03
336178.015000,-0.882,-0.429,-0.155,-8.76,-9.67,3.69
336178.062000,-0.899,-0.452,-0.135,-8.39,-5.37,7.39
336178.109000,-0.916,-0.463,-0.105,-9.31,-2.44,6.47
336178.156000,-0.876,-0.473,-0.109,-11.44,-4.21,0.03
336178.203000,-0.879,-0.438,-0.121,-5.58,0.52,0.09
336178.250000,-0.901,-0.417,-0.069,-0.98,3.94,3.75
336178.296000,-0.916,-0.426,-0.093,-1.19,2.84,2.62
336178.343000,-0.944,-0.396,-0.07,1.01,4.88,3.57
336178.390000,-0.93,-0.417,-0.061,-1.71,0.7,2.11
336178.437000,-0.893,-0.426,-0.076,1.83,0.09,2.93
336178.484000,-0.884,-0.422,-0.068,5.04,1.62,1.37
336178.531000,-0.839,-0.448,-0.058,1.86,-1.31,-2.56
336178.578000,-0.84,-0.444,-0.086,0.79,1.4,-9.98
336178.625000,-0.827,-0.454,-0.046,9.8,1.13,-12.88
336178.671000,-0.87,-0.426,-0.099,12.76,-0.12,-15.84
336178.718000,-0.979,-0.39,-0.048,15.11,12.15,-8.06
336178.765000,-1.12,-0.358,-0.09,20.08,10.53,7.05
336178.812000,-1.024,-0.51,-0.003,13.67,11.2,13.76
336178.859000,-0.863,-0.516,-0.003,20.75,-11.81,-2.69
336178.906000,-0.763,-0.511,-0.017,6.65,-5.16,-19.75
336178.953000,-0.837,-0.453,-0.007,30.4,1.22,-7.02
336179.000000,-0.963,-0.455,-0.054,23.83,5.43,8.48
336179.046000,-0.935,-0.589,0.034,2.72,1.65,-1.4
336179.093000,-0.861,-0.588,-0.023,-6.84,-9.46,-20.45
336179.140000,-0.83,-0.57,-0.069,-12.97,-4.55,-30.12
336179.187000,-0.875,-0.591,-0.036,12.36,-2.11,-29.48
336179.234000,-0.925,-0.579,-0.004,13.0,-5.16,-36.44
336179.281000,-0.923,-0.55,-0.04,17.82,-10.32,-35.49
336179.328000,-0.905,-0.558,-0.021,10.35,-10.8,-29.42
336179.375000,-0.824,-0.576,-0.052,4.61,-13.4,-25.61
336179.421000,-0.733,-0.596,-0.052,5.58,-15.66,-15.26
336179.468000,-0.684,-0.626,-0.114,-5.58,-14.13,-13.79
336179.515000,-0.702,-0.638,-0.097,-32.47,2.59,-21.24
336179.562000,-0.742,-0.631,-0.074,-18.01,7.97,-15.59
336179.609000,-0.747,-0.679,-0.052,-3.05,19.96,-10.59
336179.656000,-0.74,-0.683,0.011,33.23,21.27,-7.08
336179.703000,-0.754,-0.632,0.055,27.25,24.08,-18.65
336179.750000,-0.797,-0.592,0.054,42.88,18.19,-9.74
336179.796000,-0.799,-0.595,0.055,29.45,14.44,-10.38
336179.843000,-0.726,-0.6,0.044,5.1,1.71,-8.09
336179.890000,-0.646,-0.656,-0.014,-11.11,0.64,-1.77
336179.937000,-0.668,-0.709,-0.027,-14.98,7.97,3.02
336179.984000,-0.77,-0.76,-0.011,-9.74,10.9,8.0
336180.031000,-0.809,-0.828,0.013,-3.57,8.09,0.24
336180.078000,-0.8,-0.967,-0.012,18.52,2.47,-9.8
336180.125000,-0.815,-1.152,0.001,46.78,3.39,-31.46
336180.171000,-0.854,-1.116,-0.013,90.27,-2.93,-62.78
336180.218000,-0.846,-1.004,0.024,99.64,-21.18,-93.81
336180.265000,-0.669,-0.878,-0.103,86.09,-23.8,-113.74
336180.312000,-0.592,-0.803,0.004,111.27,0.27,-105.62
336180.359000,-0.574,-0.854,0.155,105.08,20.97,-101.08
336180.406000,-0.549,-0.959,0.176,135.47,31.62,-98.7
336180.453000,-0.512,-0.975,0.247,103.09,39.09,-124.42
336180.500000,-0.322,-0.865,0.068,110.11,64.33,-152.56
336180.546000,-0.144,-0.761,0.09,89.21,97.69,-175.3
336180.593000,-0.071,-0.482,0.144,83.93,166.14,-176.82
336180.640000,-0.085,-0.449,0.164,56.4,192.63,-156.62
336180.687000,-0.588,-0.517,0.587,61.71,247.54,-70.47
336180.734000,-0.73,-0.534,0.845,63.02,179.33,-60.34
336180.781000,-0.79,-0.459,0.867,-37.72,123.69,-110.45
336180.828000,-0.493,-0.462,0.816,12.45,56.92,-30.73
336180.875000,-0.38,-0.58,0.671,-28.14,43.55,-54.2
336180.921000,-0.355,-0.678,0.746,-7.63,16.05,-25.48
336180.968000,-0.237,-0.822,0.55,-17.85,18.22,-16.36
336181.015000,-0.234,-0.776,0.57,-14.16,-0.64,-14.5
336181.062000,-0.126,-0.699,0.411,-26.4,-0.06,-15.14
336181.109000,-0.158,-0.556,0.402,-46.94,20.14,-13.43
336181.156000,-0.237,-0.598,0.396,-28.78,22.28,41.69
336181.203000,-0.329,-0.841,0.342,-34.0,29.73,41.93
336181.250000,-0.395,-1.018,0.427,-17.58,22.95,49.04
336181.296000,-0.436,-1.001,0.52,-26.55,17.58,17.82
336181.343000,-0.409,-0.995,0.548,-25.33,4.12,19.14
336181.390000,-0.354,-1.03,0.506,-26.83,-8.58,2.56
336181.437000,-0.382,-0.964,0.461,-21.18,-11.96,-9.06
336181.484000,-0.369,-0.847,0.414,-17.98,-21.82,-9.95
336181.531000,-0.394,-0.852,0.377,-14.44,-23.65,-5.22
336181.578000,-0.383,-0.832,0.353,-15.93,-29.11,-2.78
336181.625000,-0.352,-0.813,0.366,-21.21,-30.34,-3.17
336181.671000,-0.337,-0.729,0.352,-17.76,-33.75,4.39
336181.718000,-0.375,-0.629,0.384,-41.93,-42.18,7.45
336181.765000,-0.487,-0.617,0.437,-45.66,-55.36,45.14
336181.812000,-0.894,-0.786,0.553,-65.83,-89.21,89.02
336181.859000,-1.096,-1.2,0.632,-80.66,-186.16,102.54
336181.906000,-0.869,-1.516,0.344,-67.05,-240.7,59.69
336181.953000,-0.517,-1.691,0.093,-59.91,-263.56,-19.17
336182.000000,0.173,-1.956,-0.636,5.62,-223.52,-104.8
336182.046000,0.425,-1.438,-0.801,70.74,-92.14,-168.61
336182.093000,0.355,-0.612,-0.701,115.3,48.22,-144.54
336182.140000,0.104,-0.169,-0.378,66.01,160.22,-134.43
336182.187000,-0.329,0.154,0.118,51.15,221.84,-57.16
336182.234000,-0.729,-0.229,0.725,3.94,185.25,46.39
336182.281000,-0.88,-0.548,1.007,-24.32,100.5,34.46
336182.328000,-0.601,-0.869,0.971,-19.53,33.27,38.45
336182.375000,-0.275,-0.972,0.675,-31.25,-4.7,12.54
336182.421000,-0.237,-0.997,0.654,-26.22,5.95,13.18
336182.468000,-0.344,-0.868,0.615,-17.12,-7.11,2.59
336182.515000,-0.449,-0.636,0.611,-44.19,-14.13,-2.99
336182.562000,-0.467,-0.645,0.64,-22.92,-44.1,26.73
336182.609000,-0.421,-1.032,0.714,-31.31,-57.5,45.08
336182.656000,-0.348,-1.461,0.783,-16.45,-93.2,44.16
336182.703000,0.123,-1.772,0.533,8.51,-115.18,-26.4
336182.750000,0.557,-1.488,0.173,43.06,-83.25,-92.44
336182.796000,0.526,-0.808,-0.153,61.04,26.8,-84.05
336182.843000,0.276,-0.38,-0.168,48.04,92.87,-78.59
336182.890000,-0.126,-0.013,-0.067,-29.79,146.46,-76.39
336182.937000,-0.528,0.16,0.104,-42.15,157.23,12.48
336182.984000,-0.924,-0.517,0.202,-61.92,142.31,98.48
336183.031000,-1.1,-0.667,0.489,-69.73,90.67,57.16
336183.078000,-0.83,-0.883,0.559,-38.85,40.19,103.4
336183.125000,-0.679,-1.151,0.514,-37.57,6.13,64.36
336183.171000,-0.614,-1.125,0.473,-16.02,2.01,51.0
336183.218000,-0.549,-1.111,0.439,-16.27,-13.82,32.78
336183.265000,-0.562,-1.1,0.445,-23.9,-11.08,11.84
336183.312000,-0.545,-0.948,0.404,-17.49,-32.69,-8.82
336183.359000,-0.502,-0.907,0.294,-38.48,-28.9,-24.9
336183.406000,-0.523,-0.843,0.276,-21.85,-26.64,-24.29
336183.453000,-0.48,-0.826,0.24,-13.28,-20.51,-11.11
336183.515000,-0.544,-0.715,0.316,-5.95,-13.73,-3.3
336183.562000,-0.595,-0.758,0.387,-0.73,-22.43,16.24
336183.609000,-0.573,-0.842,0.412,-19.2,-41.87,7.75
336183.656000,-0.519,-1.025,0.405,8.36,-57.31,30.79
336183.703000,-0.465,-1.158,0.307,12.82,-69.55,12.94
336183.750000,-0.304,-1.357,0.277,37.57,-70.28,-0.06
336183.796000,-0.017,-1.354,0.135,54.29,-54.41,-42.36
336183.843000,0.158,-0.984,-0.038,45.87,14.25,-128.3
336183.890000,0.127,-0.189,0.07,22.49,96.01,-99.55
336183.937000,-0.238,-0.097,0.184,40.44,155.83,33.2
336183.984000,-0.54,-0.355,0.167,-4.76,169.62,37.42
336184.031000,-1.248,-0.385,0.407,-43.64,149.94,56.92
336184.078000,-1.37,-0.81,0.389,-37.75,69.61,79.29
336184.125000,-1.145,-0.995,0.511,-42.48,4.97,21.15
336184.171000,-0.559,-0.809,0.306,-25.39,-39.98,6.84
336184.218000,-0.363,-0.925,0.363,-8.39,-8.51,39.77
336184.265000,-0.537,-1.029,0.351,-11.63,-0.34,34.33
336184.312000,-0.619,-1.048,0.381,-18.46,1.8,11.72
336184.359000,-0.682,-0.871,0.285,-5.25,-6.47,1.62
336184.406000,-0.699,-0.827,0.247,-10.01,-6.32,-7.42
336184.453000,-0.75,-0.68,0.233,-15.5,-17.4,-18.59
336184.500000,-0.66,-0.673,0.181,-6.62,-23.77,-5.52
336184.546000,-0.62,-0.694,0.19,-6.47,-17.12,-2.87
336184.593000,-0.644,-0.816,0.266,0.92,-16.66,3.63
336184.640000,-0.613,-0.898,0.259,-4.33,-23.65,-12.82
336184.687000,-0.604,-0.897,0.303,9.74,-30.52,-11.93
336184.734000,-0.574,-0.95,0.306,21.0,-39.19,-6.41
336184.781000,-0.473,-0.858,0.27,6.44,-32.59,-27.74
336184.828000,-0.423,-0.783,0.385,-7.66,-35.31,-27.65
336184.875000,-0.409,-0.727,0.406,1.53,-35.95,-9.49
336184.921000,-0.437,-0.684,0.461,-5.07,-35.95,-1.59
336184.968000,-0.346,-0.695,0.375,-5.95,-43.92,-1.19
336185.015000,-0.369,-0.628,0.377,-12.45,-33.66,7.9
336185.062000,-0.531,-0.65,0.337,-18.43,-27.83,29.08
336185.109000,-0.522,-0.671,0.262,-62.93,-35.65,-3.72
336185.156000,-0.534,-0.668,0.18,-78.34,-45.17,-3.33
336185.203000,-0.482,-0.738,0.066,-57.25,-42.15,25.42
336185.250000,-0.39,-1.051,0.003,-20.02,-14.95,48.77
336185.296000,-0.408,-1.15,0.24,41.57,26.8,61.37
336185.343000,-0.462,-1.111,0.515,34.97,26.8,50.26
336185.390000,-0.415,-1.167,0.451,-37.54,-43.89,-4.88
336185.437000,-0.526,-0.804,0.494,-79.35,-73.06,-32.65
336185.484000,-0.541,-0.743,0.314,-88.84,-115.76,3.69
336185.531000,-0.421,-0.832,0.281,-75.93,-83.32,-0.43
336185.578000,-0.454,-0.822,0.459,-21.18,-56.34,3.2
336185.625000,-0.314,-0.882,0.262,47.94,-49.1,13.15
336185.671000,-0.306,-0.764,0.266,80.94,-18.86,15.87
336185.718000,-0.375,-0.833,0.333,91.37,13.28,33.08
336185.765000,-0.424,-0.742,0.228,64.03,7.9,16.69
336185.812000,-0.493,-0.698,0.374,20.57,-9.03,44.77
336185.859000,-0.471,-0.864,0.281,-32.84,-10.16,38.21
336185.906000,-0.5,-0.984,0.349,8.67,13.92,53.16
336185.953000,-0.537,-0.708,0.445,2.72,19.84,12.45
336186.000000,-0.584,-0.624,0.529,6.65,6.62,30.52
336186.046000,-0.703,-0.77,0.508,-17.52,6.26,23.53
336186.093000,-0.734,-0.737,0.523,-31.01,-11.2,9.49
336186.140000,-0.718,-0.833,0.361,11.14,-25.88,12.3
336186.187000,-0.728,-0.698,0.313,38.51,-17.55,8.7
336186.234000,-0.751,-0.659,0.23,74.92,-21.06,32.65
336186.281000,-0.656,-0.714,0.294,44.98,-18.46,5.55
336186.328000,-0.495,-0.721,0.384,86.49,-21.45,28.69
336186.375000,-0.467,-0.618,0.561,54.54,1.68,13.92
336186.421000,-0.528,-0.649,0.73,36.99,-7.75,10.56
336186.468000,-0.711,-0.752,0.741,27.16,-13.67,-7.39
336186.515000,-0.792,-0.514,0.721,4.43,-42.42,-33.85
336186.562000,-0.812,-0.467,0.71,2.62,-67.45,-31.04
336186.609000,-0.727,-0.304,0.644,10.96,-72.21,-38.09
336186.656000,-0.668,-0.334,0.682,51.15,-63.81,4.27
336186.703000,-0.523,-0.382,0.684,44.77,-53.87,3.51
336186.750000,-0.138,-0.456,0.695,44.56,-45.87,-14.4
336186.796000,-0.031,-0.249,0.817,21.18,-8.67,-32.04
336186.843000,-0.152,-0.384,0.864,36.44,-19.23,9.4
336186.890000,-0.259,-0.205,0.741,18.19,-3.51,-24.72
336186.937000,-0.395,0.079,0.798,5.01,26.89,-9.8
336186.984000,-0.357,-0.134,0.795,-27.13,22.06,57.47
336187.031000,-0.305,-0.296,0.684,-62.59,34.76,50.42
336187.078000,-0.466,-0.303,0.805,-35.16,37.08,54.38
336187.125000,-0.672,-0.312,0.891,-10.5,43.34,58.63
336187.171000,-0.73,-0.364,0.851,-15.99,24.6,58.63
336187.218000,-0.589,-0.422,0.783,-35.95,7.42,45.44
336187.265000,-0.61,-0.42,0.656,-58.47,6.44,35.98
336187.312000,-0.606,-0.394,0.738,-65.98,15.75,36.65
336187.359000,-0.646,-0.435,0.696,-104.34,-8.12,28.32
336187.406000,-0.577,-0.658,0.512,-134.95,-13.28,15.84
336187.453000,-0.684,-0.802,0.423,-117.92,-17.82,11.87
336187.500000,-0.548,-0.858,0.296,-78.86,-1.8,-11.2
336187.546000,-0.626,-0.71,0.428,-10.35,32.07,-5.89
336187.593000,-0.723,-0.601,0.562,47.52,40.13,7.45
336187.640000,-0.757,-0.396,0.697,42.66,30.06,6.04
336187.687000,-0.744,-0.521,0.691,14.98,5.58,10.56
336187.734000,-0.66,-0.566,0.575,-17.4,-19.29,-0.15
336187.781000,-0.561,-0.586,0.459,-40.5,-13.86,-5.62
336187.828000,-0.656,-0.641,0.453,-68.18,-18.25,-2.32
336187.875000,-0.605,-0.671,0.401,-86.67,-26.52,-8.42
336187.921000,-0.494,-0.733,0.309,-55.18,-8.55,6.32
336187.968000,-0.557,-0.704,0.494,-17.85,24.63,10.01
336188.015000,-0.734,-0.858,0.539,13.37,29.15,19.59
336188.062000,-0.676,-0.72,0.611,60.3,13.79,-0.61
336188.109000,-0.68,-0.737,0.521,106.39,15.38,3.72
336188.156000,-0.82,-0.602,0.557,155.19,10.68,2.75
336188.203000,-0.752,-0.343,0.49,143.68,-2.87,12.02
336188.250000,-0.613,-0.448,0.482,68.61,-16.97,0.24
336188.296000,-0.605,-0.465,0.579,49.75,-3.11,14.44
336188.343000,-0.647,-0.488,0.693,42.6,5.01,5.68
336188.390000,-0.683,-0.319,0.745,31.37,-4.3,-4.91
336188.437000,-0.619,-0.248,0.688,19.99,-8.67,-7.14
336188.484000,-0.69,-0.26,0.722,8.58,-9.8,5.07
336188.531000,-0.715,-0.294,0.772,18.98,-18.16,11.69
336188.578000,-0.652,-0.322,0.744,5.34,-27.89,10.07
336188.625000,-0.638,-0.396,0.772,1.4,-27.13,7.78
336188.671000,-0.576,-0.439,0.743,0.55,-29.08,-0.18
336188.718000,-0.537,-0.418,0.721,-2.66,-19.07,-10.07
336188.765000,-0.533,-0.419,0.696,-2.69,-12.18,-19.2
336188.812000,-0.503,-0.396,0.689,14.25,-6.04,-17.91
336188.859000,-0.535,-0.391,0.739,19.23,2.17,-18.28
336188.906000,-0.536,-0.448,0.686,24.38,2.23,-23.07
336188.953000,-0.662,-0.535,0.687,31.4,8.58,-22.92
336189.000000,-0.649,-0.462,0.614,34.91,9.74,-49.17
336189.046000,-0.607,-0.442,0.572,22.03,17.03,-60.24
336189.093000,-0.606,-0.274,0.665,27.1,29.97,-63.2
336189.140000,-0.666,-0.081,0.83,25.21,36.13,-48.8
336189.187000,-0.69,0.039,0.927,5.52,29.27,-31.01
336189.234000,-0.658,0.013,0.944,-20.81,8.12,-7.57
336189.281000,-0.606,-0.024,0.902,-34.12,-7.29,8.73
336189.328000,-0.507,-0.133,0.766,-45.81,-19.59,24.23
336189.375000,-0.463,-0.18,0.724,-53.25,-16.33,34.88
336189.421000,-0.5,-0.248,0.754,-40.65,-4.03,57.65
336189.468000,-0.553,-0.413,0.712,-59.85,2.72,61.77
336189.515000,-0.562,-0.546,0.688,-49.32,3.02,61.28
336189.562000,-0.675,-0.632,0.742,-50.36,14.31,53.59
336189.609000,-0.661,-0.688,0.703,-50.05,-6.16,33.75
336189.656000,-0.585,-0.613,0.624,-63.81,-10.38,6.5
336189.703000,-0.627,-0.538,0.652,-31.53,-7.08,17.4
336189.750000,-0.626,-0.49,0.676,-29.91,-8.3,12.12
336189.796000,-0.619,-0.413,0.68,-29.85,-10.25,6.2
336189.843000,-0.608,-0.449,0.629,-21.64,-8.85,9.22
336189.890000,-0.544,-0.436,0.549,-17.03,-0.89,1.1
336189.937000,-0.665,-0.468,0.587,8.36,23.07,21.61
336189.984000,-0.681,-0.467,0.539,-5.01,9.98,16.3
336190.031000,-0.752,-0.532,0.564,-9.64,13.43,12.91
336190.078000,-0.748,-0.568,0.576,16.85,5.95,17.52
336190.125000,-0.692,-0.545,0.561,18.77,-0.27,3.39
336190.171000,-0.766,-0.488,0.61,32.14,19.84,-6.84
336190.218000,-0.767,-0.471,0.581,20.08,4.64,-9.58
336190.265000,-0.762,-0.421,0.558,8.3,-2.23,-14.22
336190.312000,-0.74,-0.426,0.591,2.59,-4.15,-12.85
336190.375000,-0.575,-0.486,0.576,19.9,7.05,-3.48
336190.421000,-0.632,-0.609,0.727,34.94,7.23,1.19
336190.468000,-0.713,-0.86,0.824,44.28,-1.53,-8.21
336190.515000,-0.785,-0.878,0.843,26.58,-18.43,-58.23
336190.562000,-0.785,-0.778,0.719,38.12,-28.57,-83.56
336190.609000,-0.744,-0.432,0.749,43.28,-25.82,-101.29
336190.656000,-0.656,-0.215,0.731,27.38,-31.5,-103.67
336190.703000,-0.573,-0.018,0.662,4.24,-18.1,-85.7
336190.750000,-0.538,-0.032,0.706,2.59,-17.43,-41.75
336190.796000,-0.46,-0.129,0.572,-9.19,-28.63,-20.87
336190.843000,-0.378,-0.234,0.645,-12.82,-5.62,3.54
336190.890000,-0.349,-0.376,0.634,1.68,12.24,20.42
336190.937000,-0.398,-0.491,0.708,-7.45,16.54,20.36
336190.984000,-0.484,-0.516,0.685,1.62,33.6,14.16
336191.031000,-0.593,-0.539,0.731,5.49,38.85,15.66
336191.078000,-0.625,-0.526,0.715,-1.04,25.15,9.7
336191.125000,-0.58,-0.556,0.612,-9.77,19.99,9.22
336191.171000,-0.567,-0.583,0.609,-17.55,31.74,1.16
336191.218000,-0.586,-0.467,0.577,-12.79,22.68,-3.2
336191.265000,-0.654,-0.369,0.612,-39.74,36.84,-6.41
336191.312000,-0.661,-0.422,0.581,-37.78,15.87,13.12
336191.359000,-0.662,-0.477,0.561,-39.89,32.35,16.72
336191.406000,-0.62,-0.573,0.581,-20.91,35.43,25.57
336191.453000,-0.555,-0.617,0.622,4.0,38.15,30.21
336191.500000,-0.674,-0.655,0.706,10.74,46.82,15.63
336191.546000,-0.81,-0.621,0.77,17.33,16.82,15.29
336191.593000,-0.81,-0.594,0.612,-12.63,-6.5,1.53
336191.640000,-0.785,-0.598,0.557,-18.77,-19.81,5.89
336191.687000,-0.693,-0.589,0.497,-24.48,-30.7,7.54
336191.734000,-0.64,-0.516,0.45,-41.63,-30.49,4.12
336191.781000,-0.63,-0.455,0.415,-46.51,-30.76,15.38
336191.828000,-0.702,-0.498,0.421,-47.46,-28.53,36.87
336191.875000,-0.793,-0.543,0.422,-47.94,-25.33,43.46
336191.921000,-0.793,-0.467,0.411,-32.32,-30.67,44.59
336191.968000,-0.672,-0.513,0.347,-27.8,-31.34,50.78
336192.015000,-0.605,-0.762,0.318,-1.04,-12.05,37.97
336192.062000,-0.637,-0.727,0.356,25.06,9.64,19.41
336192.109000,-0.743,-0.674,0.425,27.04,14.74,12.15
336192.156000,-0.756,-0.768,0.496,8.15,7.42,13.03
336192.203000,-0.717,-0.719,0.518,-7.26,6.9,-10.07
336192.250000,-0.734,-0.536,0.554,-5.65,5.55,-34.0
336192.296000,-0.712,-0.439,0.547,12.97,3.02,-24.45
336192.343000,-0.715,-0.381,0.562,15.96,0.82,-21.67
336192.390000,-0.714,-0.332,0.553,6.62,-8.0,-10.5
336192.437000,-0.728,-0.363,0.55,-8.0,-4.91,3.23
336192.484000,-0.74,-0.395,0.553,-16.48,-11.84,16.51
336192.531000,-0.695,-0.407,0.513,-29.15,-18.52,26.89
336192.578000,-0.687,-0.445,0.483,-45.44,-13.73,39.4
336192.625000,-0.732,-0.602,0.471,-62.01,1.56,40.44
336192.671000,-0.881,-0.844,0.66,-77.73,-1.22,16.48
336192.718000,-0.867,-0.916,0.405,-25.48,-34.39,-3.94
336192.765000,-0.676,-0.737,0.173,-27.01,-37.35,-24.9
336192.812000,-0.688,-0.607,0.322,23.96,-20.91,-53.71
336192.859000,-0.665,-0.443,0.349,21.67,-0.4,-34.76
336192.906000,-0.749,-0.481,0.484,28.9,1.31,-28.17
336192.953000,-0.711,-0.482,0.539,19.41,-4.43,-19.96
336193.000000,-0.627,-0.489,0.505,9.86,6.16,-19.44
336193.046000,-0.593,-0.529,0.526,1.01,36.9,-18.22
336193.093000,-0.598,-0.536,0.579,-3.48,39.22,-13.58
336193.140000,-0.496,-0.532,0.333,-30.82,79.29,8.48
336193.187000,-0.646,-0.586,0.611,-8.36,41.57,18.74
336193.234000,-0.705,-0.621,0.439,8.27,16.54,29.57
336193.281000,-0.728,-0.658,0.558,-0.18,10.07,17.88
336193.328000,-0.739,-0.575,0.576,-9.92,-25.67,11.51
336193.375000,-0.743,-0.537,0.411,-35.19,-3.72,16.48
336193.421000,-0.681,-0.579,0.399,-58.75,2.96,6.65
336193.468000,-0.72,-0.62,0.358,-48.22,-2.29,2.26
336193.515000,-0.746,-0.626,0.326,-37.87,-23.35,6.59
336193.562000,-0.692,-0.716,0.391,-34.27,-39.46,13.55
336193.609000,-0.732,-0.671,0.366,-15.59,-40.89,7.32
336193.656000,-0.722,-0.668,0.293,-20.14,-28.32,-5.01
336193.703000,-0.749,-0.623,0.287,-21.55,-12.15,4.7
336193.750000,-0.707,-0.614,0.291,-17.82,-2.44,-3.42
336193.796000,-0.706,-0.59,0.268,-10.74,2.08,-4.73
336193.843000,-0.731,-0.611,0.252,-8.88,1.13,-10.86
336193.890000,-0.686,-0.614,0.298,-1.04,-13.92,1.53
336193.937000,-0.7,-0.664,0.303,7.39,-13.61,-6.81
336193.984000,-0.673,-0.669,0.339,-2.69,-0.52,9.34
336194.031000,-0.668,-0.638,0.375,8.67,-11.57,-1.56
336194.078000,-0.682,-0.644,0.379,-2.99,9.49,4.24
336194.125000,-0.757,-0.706,0.383,12.85,3.91,7.48
336194.171000,-0.746,-0.704,0.269,3.39,-1.92,7.26
336194.218000,-0.676,-0.663,0.265,-5.83,-1.59,-5.22
336194.265000,-0.621,-0.633,0.227,3.02,5.98,7.97
336194.312000,-0.669,-0.633,0.313,-7.05,8.45,11.26
336194.359000,-0.732,-0.569,0.343,0.98,2.84,32.41
336194.406000,-0.789,-0.576,0.392,-7.26,10.32,42.09
336194.453000,-0.775,-0.556,0.401,-9.13,-0.82,28.96
336194.500000,-0.732,-0.573,0.43,3.33,-9.16,12.09
336194.546000,-0.735,-0.502,0.37,-1.71,-1.56,24.87
336194.593000,-0.725,-0.415,0.29,1.4,-5.07,18.71
336194.640000,-0.685,-0.388,0.372,-4.0,-7.05,10.1
336194.687000,-0.747,-0.549,0.337,-9.28,6.13,18.13
336194.734000,-1.153,-0.653,0.476,23.83,22.58,45.66
336194.781000,-1.045,-0.64,0.523,37.35,5.98,12.3
336194.828000,-0.734,-0.506,0.44,20.91,-6.35,-37.78
336194.875000,-0.568,-0.61,0.587,27.13,-39.77,-48.01
336194.921000,-0.638,-0.516,0.519,32.2,-26.64,-37.39
336194.968000,-0.848,-0.563,0.644,51.03,-37.75,-8.91
336195.015000,-0.781,-0.43,0.508,44.1,-30.06,-29.45
336195.062000,-0.635,-0.337,0.4,-3.42,5.86,-31.59
336195.109000,-0.636,-0.326,0.321,-31.1,38.85,3.94
336195.156000,-0.665,-0.345,0.358,-24.66,52.37,5.89
336195.203000,-0.87,-0.376,0.44,-0.21,27.13,38.45
336195.250000,-0.761,-0.539,0.545,-18.83,18.68,41.69
336195.296000,-0.778,-0.484,0.493,-22.25,5.89,19.01
336195.343000,-0.72,-0.552,0.482,10.83,22.1,12.18
336195.390000,-0.804,-0.452,0.587,8.45,7.35,10.68
336195.437000,-0.807,-0.501,0.432,4.82,-33.51,-0.89
336195.484000,-0.767,-0.486,0.472,-9.13,-6.26,3.39
336195.531000,-0.862,-0.448,0.452,2.32,-15.32,15.87
336195.578000,-0.822,-0.488,0.468,-16.69,-12.18,9.95
336195.625000,-0.767,-0.394,0.434,-15.11,-3.33,12.67
336195.671000,-0.714,-0.399,0.418,-6.87,-6.87,18.52
336195.718000,-0.789,-0.379,0.44,-4.61,-8.15,19.56
336195.765000,-0.829,-0.398,0.472,3.05,-5.98,29.85
336195.812000,-0.703,-0.478,0.39,22.52,21.33,13.98
336195.859000,-0.794,-0.417,0.379,0.67,0.55,3.51
336195.906000,-0.857,-0.429,0.45,-2.75,-11.14,0.27
336195.953000,-0.864,-0.467,0.483,-19.93,-15.02,7.6
336196.000000,-0.852,-0.478,0.476,1.28,-9.13,-8.33
336196.046000,-0.799,-0.355,0.425,-15.99,-35.52,1.56
336196.093000,-0.799,-0.338,0.446,-5.4,-26.31,4.36
336196.140000,-0.805,-0.326,0.433,-0.18,-4.85,10.71
336196.187000,-0.812,-0.38,0.448,20.45,-21.55,6.84
336196.234000,-0.793,-0.413,0.537,15.93,-32.59,18.92
336196.281000,-0.803,-0.367,0.5,23.44,-23.87,28.75
336196.328000,-0.754,-0.414,0.608,5.86,-9.74,17.67
336196.375000,-0.762,-0.335,0.59,2.17,-7.39,4.58
336196.421000,-0.724,-0.279,0.546,-4.43,5.8,-6.84
336196.468000,-0.671,-0.269,0.498,2.59,12.39,-7.51
336196.515000,-0.797,-0.271,0.56,15.5,17.03,15.32
336196.562000,-0.843,-0.302,0.596,11.44,2.32,32.11
336196.609000,-0.777,-0.217,0.587,12.12,-4.12,16.45
336196.656000,-0.707,-0.196,0.642,-6.1,-30.61,43.15
336196.703000,-0.718,-0.624,0.408,-40.8,12.45,49.04
336196.750000,-0.902,-0.364,0.606,-21.45,12.02,25.09
336196.796000,-0.944,-0.364,0.752,17.91,-4.06,16.69
336196.843000,-0.755,-0.245,0.552,1.4,-14.04,-12.82
336196.890000,-0.761,-0.235,0.526,3.88,-8.36,-8.79
336196.937000,-0.803,-0.167,0.543,14.1,-4.03,-2.17
336196.984000,-0.809,-0.156,0.582,8.51,-8.18,9.49
336197.031000,-0.767,-0.15,0.549,-2.56,-4.55,12.27
336197.078000,-0.728,-0.209,0.503,-2.69,-5.25,30.79
336197.125000,-0.835,-0.19,0.679,6.07,25.33,17.0
336197.171000,-0.885,-0.294,0.597,2.29,8.91,-0.43
336197.218000,-0.791,-0.131,0.646,9.83,9.61,-14.4
336197.265000,-0.737,-0.142,0.599,20.05,0.0,-18.22
336197.312000,-0.801,-0.134,0.585,25.21,-8.21,-9.4
336197.359000,-0.827,-0.184,0.605,32.47,-13.09,6.16
336197.406000,-0.78,-0.185,0.571,33.51,-5.55,14.62
336197.453000,-0.78,-0.163,0.593,19.23,-1.4,1.89
336197.500000,-0.795,-0.146,0.62,18.68,1.1,0.49
336197.546000,-0.82,-0.151,0.62,35.07,8.39,-10.38
336197.593000,-0.823,-0.094,0.639,40.53,12.24,-11.93
336197.640000,-0.784,-0.072,0.607,24.45,-4.46,-11.99
336197.687000,-0.788,-0.118,0.644,-22.71,-11.96,-9.25
336197.734000,-0.947,0.006,0.86,-33.51,-32.99,8.33
336197.781000,-0.743,-0.121,0.64,-33.51,1.65,-6.71
336197.828000,-0.722,-0.172,0.578,5.83,-2.29,-1.89
336197.875000,-0.725,-0.104,0.625,-37.54,2.01,-11.9
336197.921000,-0.76,-0.159,0.613,-42.24,-10.8,-1.07
336197.968000,-0.828,-0.198,0.647,-36.16,-4.91,-0.58
336198.015000,-0.796,-0.179,0.657,-3.94,-17.3,-13.89
336198.062000,-0.665,-0.21,0.599,10.01,-16.11,8.12
336198.109000,-0.702,-0.227,0.701,12.02,-10.04,0.24
336198.156000,-0.788,-0.128,0.711,13.46,-15.17,7.75
336198.203000,-0.77,-0.111,0.683,12.27,-15.56,17.67
336198.250000,-0.68,-0.139,0.601,-13.28,-15.32,33.3
336198.296000,-0.668,-0.132,0.666,-12.05,0.24,42.3
336198.343000,-0.72,-0.155,0.673,-0.24,9.7,36.29
336198.390000,-0.75,-0.102,0.727,13.31,13.49,12.76
336198.437000,-0.774,-0.106,0.675,7.69,3.6,4.3
336198.484000,-0.725,-0.06,0.707,16.08,6.16,5.4
336198.531000,-0.723,-0.074,0.67,20.23,5.83,11.35
336198.578000,-0.742,-0.06,0.647,24.72,8.76,24.99
336198.625000,-0.775,-0.067,0.628,29.6,11.32,15.81
336198.671000,-0.785,-0.049,0.662,41.75,9.31,20.08
336198.718000,-0.749,0.026,0.751,19.32,10.59,-2.04
336198.765000,-0.717,0.014,0.747,3.78,7.17,-7.35
336198.812000,-0.693,-0.003,0.678,41.47,10.44,-17.43
336198.859000,-0.869,-0.061,0.827,40.47,15.87,-36.9
336198.906000,-0.856,0.005,0.747,68.0,10.38,-55.12
336198.953000,-0.792,0.096,0.598,77.64,8.0,-67.9
336199.000000,-0.755,0.118,0.529,73.12,5.65,-63.6
336199.046000,-0.695,0.054,0.522,48.04,-0.15,-53.65
336199.093000,-0.754,0.013,0.496,39.86,5.83,-52.64
336199.140000,-0.879,0.003,0.508,18.65,8.82,-35.25
336199.187000,-0.906,-0.076,0.454,-16.91,2.38,-21.06
336199.234000,-0.889,-0.102,0.583,4.12,4.58,-19.44
336199.281000,-0.86,-0.078,0.508,-33.6,-3.63,-11.05
336199.328000,-0.793,-0.046,0.668,-45.53,-4.64,-11.72
336199.375000,-0.712,-0.15,0.53,-28.44,-4.73,-7.42
336199.421000,-0.824,-0.225,0.584,-50.72,10.1,3.23
336199.468000,-0.894,-0.217,0.506,-49.78,17.94,10.5
336199.515000,-0.835,-0.234,0.555,-31.31,3.33,3.42
336199.562000,-0.813,-0.156,0.529,-8.94,7.54,-11.38
336199.609000,-0.83,-0.146,0.543,7.45,23.29,7.57
336199.656000,-0.853,-0.052,0.53,2.44,0.95,9.8
336199.703000,-0.815,-0.141,0.525,-8.97,-5.55,24.96
336199.750000,-0.878,-0.18,0.591,6.78,-15.38,20.84
336199.796000,-0.831,-0.203,0.53,2.81,-10.38,18.19
336199.843000,-0.841,-0.202,0.538,-11.57,5.8,16.02
336199.890000,-0.865,-0.184,0.535,-36.29,3.51,10.44
336199.937000,-0.816,-0.202,0.554,-46.6,-2.66,2.78
336199.984000,-0.859,-0.175,0.557,-36.99,-3.05,-7.6
336200.031000,-0.852,-0.15,0.52,-25.3,-3.27,-4.06
336200.078000,-0.837,-0.111,0.443,5.68,-2.32,2.75
336200.125000,-0.849,-0.137,0.372,8.0,-6.07,6.81
336200.171000,-0.898,-0.177,0.42,6.78,-9.4,9.92
336200.218000,-0.874,-0.195,0.449,-0.34,-7.05,10.71
336200.265000,-0.886,-0.229,0.507,13.37,5.4,2.69
336200.312000,-0.899,-0.186,0.55,10.01,4.3,-3.39
336200.359000,-0.854,-0.154,0.605,12.15,-4.79,-7.26
336200.406000,-0.782,-0.127,0.57,10.19,-10.01,-11.26
336200.453000,-0.775,-0.121,0.578,24.29,-4.64,-10.53
336200.500000,-0.826,-0.15,0.552,21.64,-1.65,-8.67
336200.546000,-0.827,-0.151,0.553,20.45,-1.89,-8.42
336200.593000,-0.806,-0.193,0.576,20.26,-1.22,-15.44
336200.640000,-0.788,-0.132,0.623,15.59,1.86,-9.67
336200.687000,-0.793,-0.18,0.632,-0.03,1.86,-9.58
336200.734000,-0.781,-0.169,0.555,-5.65,-3.11,-2.26
336200.781000,-0.826,-0.164,0.631,3.48,2.9,-1.98
336200.828000,-0.808,-0.099,0.606,9.03,-1.25,-1.68
336200.875000,-0.798,-0.141,0.602,1.62,1.89,1.01
336200.921000,-0.796,-0.144,0.559,4.3,-0.76,3.54
336200.968000,-0.818,-0.142,0.562,-4.15,2.72,7.81
336201.015000,-0.837,-0.142,0.551,-4.3,7.93,10.35
336201.062000,-0.848,-0.135,0.552,-0.64,9.03,8.27
336201.109000,-0.835,-0.153,0.555,-3.27,9.61,5.31
336201.156000,-0.844,-0.141,0.556,-0.61,10.53,4.15
336201.203000,-0.831,-0.118,0.55,-0.98,5.89,0.79
336201.250000,-0.839,-0.116,0.537,-10.53,3.78,2.29
336201.296000,-0.827,-0.121,0.516,-5.86,0.52,4.39
336201.343000,-0.843,-0.137,0.533,-9.52,1.43,6.1
336201.390000,-0.836,-0.152,0.526,-12.45,1.16,4.12
336201.437000,-0.874,-0.146,0.534,-11.14,-1.77,8.73
336201.484000,-0.859,-0.145,0.526,-18.77,-2.38,2.75
336201.531000,-0.845,-0.136,0.526,-12.3,-2.78,4.12
336201.578000,-0.845,-0.144,0.501,-16.3,-4.79,3.72
336201.625000,-0.84,-0.162,0.501,-13.46,-0.49,5.43
336201.671000,-0.847,-0.163,0.519,-9.22,-1.92,2.41
336201.718000,-0.851,-0.157,0.511,-9.28,-0.21,2.38
336201.765000,-0.846,-0.191,0.543,-12.97,-0.31,-0.49
336201.812000,-0.836,-0.204,0.504,0.09,0.82,-5.49
336201.859000,-0.853,-0.2,0.621,24.17,5.65,-23.99
336201.906000,-0.845,-0.207,0.565,8.91,-1.07,-20.6
336201.953000,-0.837,-0.17,0.531,-3.88,9.67,-24.17
336202.000000,-0.815,-0.104,0.528,3.88,-1.53,-10.56
336202.046000,-0.824,-0.143,0.563,-9.13,-10.99,2.5
336202.093000,-0.776,-0.213,0.616,-18.07,-6.32,-5.19
336202.140000,-0.803,-0.226,0.586,1.65,-1.89,6.74
336202.187000,-0.825,-0.321,0.5,-30.09,0.64,-17.37
336202.234000,-0.855,-0.224,0.529,5.04,-1.13,-2.9
336202.281000,-0.84,-0.197,0.518,6.29,2.11,-0.27
336202.328000,-0.804,-0.192,0.539,2.66,-4.36,3.97
336202.375000,-0.818,-0.225,0.558,3.45,-4.46,8.67
336202.421000,-0.801,-0.233,0.569,6.53,-6.47,8.91
336202.468000,-0.819,-0.23,0.593,-1.4,-11.75,4.88
336202.515000,-0.817,-0.274,0.586,6.47,-10.22,1.5
336202.562000,-0.834,-0.252,0.575,13.43,-11.08,-5.1
336202.609000,-0.816,-0.253,0.578,12.85,-11.35,-6.74
336202.656000,-0.778,-0.238,0.548,15.81,-16.08,-8.64
336202.703000,-0.715,-0.193,0.504,16.85,-12.6,-3.81
336202.750000,-0.805,-0.212,0.585,16.33,3.78,-5.86
336202.796000,-0.876,-0.224,0.645,7.6,-4.61,-12.48
336202.843000,-0.838,-0.268,0.613,0.64,-8.18,-24.45
336202.890000,-0.745,-0.212,0.575,8.42,-9.8,-21.97
336202.937000,-0.703,-0.177,0.546,7.57,-10.68,-15.75
336202.984000,-0.705,-0.191,0.54,3.81,4.76,-9.98
336203.031000,-0.808,-0.214,0.624,8.09,18.62,-2.04
336203.078000,-0.8,-0.283,0.686,3.14,9.52,-5.65
336203.125000,-0.722,-0.311,0.616,13.58,9.31,-10.71
336203.171000,-0.744,-0.224,0.552,19.38,27.19,-15.87
336203.218000,-0.782,-0.202,0.599,-5.98,12.21,-3.81
336203.265000,-0.763,-0.168,0.641,6.29,8.64,4.3
336203.312000,-0.759,-0.181,0.587,-2.38,4.85,19.04
336203.359000,-0.767,-0.225,0.628,-1.95,10.01,22.52
336203.406000,-0.813,-0.234,0.598,-22.89,7.2,12.42
336203.453000,-0.824,-0.219,0.617,-38.97,2.62,17.46
336203.500000,-0.844,-0.267,0.579,-23.53,-4.39,18.19
336203.546000,-0.852,-0.206,0.516,-16.24,-3.85,8.58
336203.593000,-0.835,-0.181,0.451,-16.08,-0.64,8.21
336203.640000,-0.839,-0.25,0.461,-21.67,-8.06,5.31
336203.687000,-0.802,-0.249,0.514,-22.03,-9.09,7.26
336203.734000,-0.828,-0.266,0.546,-9.25,9.58,11.99
336203.781000,-0.884,-0.274,0.563,-5.43,8.67,5.01
336203.828000,-0.856,-0.241,0.53,9.37,16.33,2.26
336203.875000,-0.803,-0.24,0.454,4.88,17.37,5.89
336203.921000,-0.805,-0.239,0.454,11.02,19.96,-2.14
336203.968000,-0.817,-0.195,0.435,31.01,21.64,-1.53
336204.015000,-0.916,-0.202,0.529,32.56,7.97,4.39
336204.062000,-0.942,-0.279,0.562,4.03,-7.72,-3.72
336204.109000,-0.874,-0.275,0.544,-5.13,-26.64,-4.55
336204.156000,-0.843,-0.293,0.513,-22.19,-13.37,-7.93
336204.203000,-0.876,-0.282,0.491,-16.88,-8.73,-16.27
336204.250000,-0.855,-0.176,0.516,-16.36,-5.34,-13.64
336204.296000,-0.791,-0.124,0.445,-25.36,-12.02,-9.58
336204.343000,-0.727,-0.145,0.406,-25.36,-8.64,-3.54
336204.390000,-0.821,-0.179,0.483,10.62,0.52,3.36
336204.437000,-0.76,-0.194,0.47,17.12,-13.89,3.85
336204.484000,-0.737,-0.205,0.554,17.0,-3.33,3.54
336204.531000,-1.125,-0.258,0.836,21.55,15.53,21.64
336204.578000,-1.049,-0.384,0.854,17.3,10.53,-4.49
336204.625000,-0.645,-0.231,0.562,24.38,-26.12,-18.04
336204.671000,-0.462,-0.243,0.526,17.98,-18.68,-31.13
336204.718000,-0.627,-0.248,0.698,30.61,-9.67,-14.1
336204.765000,-1.005,-0.155,0.88,34.21,2.04,-3.23
336204.812000,-0.863,-0.138,0.756,19.53,-26.18,-16.33
336204.859000,-0.556,-0.056,0.552,3.94,-41.29,-6.9
336204.906000,-0.548,-0.072,0.542,-42.48,-28.81,20.48
336204.953000,-0.671,-0.205,0.736,-60.03,3.39,46.97
336205.000000,-0.76,-0.204,0.826,-28.05,-0.49,33.6
336205.046000,-0.614,-0.146,0.699,-33.69,-30.12,35.52
336205.093000,-0.704,-0.166,0.698,-8.42,-18.83,18.56
336205.140000,-0.81,-0.157,0.589,-17.91,-24.78,40.59
336205.187000,-0.771,-0.206,0.52,-34.97,-33.42,22.03
336205.234000,-0.676,-0.277,0.601,-46.72,-12.6,28.44
336205.281000,-0.736,-0.322,0.739,-20.05,5.16,27.86
336205.328000,-0.768,-0.322,0.883,-13.15,-8.33,9.77
336205.375000,-0.711,-0.273,0.831,1.4,-29.79,-7.26
336205.421000,-0.717,-0.127,0.806,11.23,-25.97,-22.03
336205.468000,-0.716,-0.054,0.759,5.4,-41.87,-17.64
336205.515000,-0.669,-0.047,0.665,-30.3,-36.68,11.9
336205.562000,-0.687,-0.229,0.707,-52.71,-27.25,28.93
336205.609000,-0.668,-0.372,0.683,-53.13,-26.15,20.87
336205.656000,-0.632,-0.48,0.688,-34.67,-25.91,6.47
