t_monotonic,ax,ay,az,gx,gy,gz
503871.984000,-0.435,-0.703,0.719,56.22,-37.26,-0.31
503872.031000,-0.405,-0.616,0.785,83.74,-50.6,4.09
503872.093000,-0.317,-0.488,0.81,120.7,-76.97,0.61
503872.156000,-0.22,-0.385,0.99,111.55,-45.93,-13.58
503872.203000,-0.071,-0.233,0.78,100.56,-26.86,-21.94
503872.250000,-0.087,-0.29,0.92,51.94,13.64,-50.45
503872.296000,-0.296,-0.072,1.031,26.64,64.61,-52.58
503872.343000,-0.419,0.095,1.1,-22.71,67.14,-44.71
503872.390000,-0.599,-0.026,1.297,-71.44,-43.09,-2.62
503872.437000,-0.314,-0.367,0.809,-109.2,-84.35,42.05
503872.484000,-0.227,-0.689,0.81,-105.11,-72.91,32.44
503872.531000,-0.126,-0.648,0.66,-75.99,-79.71,21.15
503872.578000,-0.012,-0.712,0.613,-73.31,-59.27,16.48
503872.625000,0.007,-0.812,0.425,-25.7,-158.39,18.31
503872.671000,-0.038,-0.633,0.799,-33.97,-1.89,0.85
503872.718000,-0.057,-0.55,0.9,1.74,0.95,-0.61
503872.765000,-0.075,-0.573,0.893,3.17,-14.22,11.11
503872.812000,0.017,-0.589,0.726,-8.39,35.58,-4.03
503872.859000,-0.133,-0.66,0.783,13.06,-8.18,17.61
503872.906000,-0.115,-0.661,0.674,9.31,0.24,9.86
503872.953000,-0.125,-0.623,0.7,-12.18,8.42,-3.94
503873.000000,-0.266,-0.512,0.533,-10.99,2.41,-5.83
503873.046000,-0.08,-0.469,0.369,-19.56,11.54,-0.18
503873.093000,-0.284,-0.512,0.414,-14.31,65.31,15.05
503873.140000,-0.163,-0.479,0.594,-7.29,85.09,16.21
503873.187000,-0.2,-0.575,0.829,-0.76,128.94,34.91
503873.234000,-0.55,-0.665,1.094,16.11,151.13,41.11
503873.281000,-0.488,-0.588,1.041,-26.03,95.46,14.74
503873.328000,-0.494,-0.738,1.004,-28.26,74.4,33.33
503873.375000,-0.483,-0.895,1.022,-29.82,53.77,24.32
503873.421000,-0.45,-0.921,0.856,-44.89,16.33,-15.99
503873.468000,-0.392,-0.853,0.76,-30.46,-1.19,-26.49
503873.515000,-0.395,-0.911,0.722,-12.63,-14.74,-27.13
503873.562000,-0.467,-0.881,0.64,-22.95,-24.87,-48.92
503873.609000,-0.428,-0.761,0.508,-12.79,-41.29,-51.55
503873.656000,-0.365,-0.727,0.435,-16.14,-35.92,-46.42
503873.703000,-0.378,-0.79,0.465,-14.34,-21.79,-42.85
503873.750000,-0.33,-0.799,0.362,-15.84,-24.32,-40.77
503873.796000,-0.256,-0.757,0.309,-32.07,-6.35,-50.36
503873.843000,-0.216,-0.802,0.351,-21.12,9.43,-33.08
503873.890000,-0.188,-0.888,0.399,-3.39,1.74,-19.44
503873.937000,-0.125,-0.949,0.367,-12.48,2.04,-23.41
503874.000000,-0.128,-1.011,0.463,2.56,5.49,-25.24
503874.046000,-0.088,-0.886,0.435,-8.61,0.73,-40.5
503874.093000,-0.138,-0.825,0.477,-6.29,5.01,-35.68
503874.140000,-0.134,-0.804,0.451,3.27,-7.35,-16.45
503874.187000,-0.075,-0.737,0.412,-16.51,-6.65,-12.42
503874.234000,0.016,-0.683,0.402,-15.17,7.39,-1.22
503874.281000,0.009,-0.762,0.454,-18.43,13.49,17.64
503874.328000,-0.042,-0.825,0.504,-12.85,17.37,19.75
503874.375000,-0.118,-0.899,0.535,-15.41,6.2,25.33
503874.421000,-0.192,-0.968,0.54,1.92,-7.35,21.88
503874.468000,-0.222,-0.963,0.508,-4.27,-15.75,12.24
503874.515000,-0.226,-0.989,0.502,-0.7,-19.78,13.15
503874.562000,-0.185,-1.025,0.453,1.89,-23.26,8.91
503874.609000,-0.18,-0.989,0.481,-13.61,-15.35,-7.17
503874.656000,-0.199,-0.891,0.491,-7.35,-12.57,-11.84
503874.703000,-0.227,-0.894,0.45,-12.02,-3.97,-3.57
503874.750000,-0.302,-1.011,0.459,-12.3,7.11,-8.03
503874.796000,-0.215,-0.948,0.343,-17.46,5.4,-43.06
503874.843000,-0.064,-0.818,0.303,-16.57,16.91,-48.16
503874.890000,-0.027,-0.793,0.35,5.1,18.04,-24.93
503874.937000,0.002,-0.763,0.324,13.76,8.33,-5.83
503874.984000,-0.103,-0.872,0.376,18.28,14.31,21.3
503875.031000,-0.121,-0.967,0.414,2.53,12.91,10.35
503875.078000,-0.111,-0.989,0.415,-8.03,11.14,0.82
503875.125000,-0.05,-1.044,0.331,-4.55,5.65,-11.35
503875.171000,-0.025,-0.951,0.39,-13.28,9.03,-23.83
503875.234000,-0.004,-0.961,0.375,29.18,-10.83,6.53
503875.281000,0.002,-0.983,0.389,4.52,-1.53,-15.93
503875.328000,-0.026,-0.947,0.494,-13.79,0.85,-27.74
503875.375000,-0.041,-0.917,0.474,-12.88,-8.21,-27.53
503875.421000,-0.028,-0.924,0.375,-28.23,-9.83,-33.66
503875.468000,0.036,-0.846,0.282,-37.51,-11.47,-43.21
503875.515000,0.075,-0.876,0.236,-36.93,-7.72,-28.84
503875.562000,0.116,-0.892,0.168,-38.54,-1.59,-22.64
503875.609000,0.096,-0.972,0.162,-21.18,6.26,-0.73
503875.656000,0.1,-1.04,0.138,-50.26,16.85,-15.05
503875.703000,0.088,-0.985,0.143,-46.42,9.25,-11.72
503875.750000,0.145,-0.937,0.08,-44.74,0.31,-13.43
503875.796000,0.163,-0.926,0.063,-64.88,4.39,-18.37
503875.843000,0.152,-1.016,0.121,-32.93,1.4,6.16
503875.890000,0.118,-1.056,0.161,-2.23,4.12,18.28
503875.937000,0.102,-1.055,0.195,4.49,10.93,10.41
503875.984000,0.111,-1.031,0.238,-13.67,-0.46,-5.46
503876.031000,0.131,-1.008,0.156,-1.4,-23.41,-9.98
503876.078000,0.16,-0.989,0.042,-24.05,-21.61,-23.96
503876.125000,0.148,-1.001,0.046,-16.97,-34.42,-17.52
503876.171000,0.172,-0.981,-0.07,-9.67,-49.17,-15.02
503876.218000,0.168,-0.965,-0.104,-24.72,-35.07,-17.15
503876.265000,0.184,-0.965,-0.122,-13.37,-15.23,-14.62
503876.312000,0.199,-0.947,-0.118,-8.48,-7.87,-8.24
503876.359000,0.216,-0.95,-0.145,-3.69,8.55,-2.14
503876.421000,0.183,-0.949,-0.146,3.08,22.92,5.74
503876.468000,0.196,-0.957,-0.11,0.34,33.11,6.32
503876.515000,0.208,-0.966,-0.107,-4.24,31.28,10.65
503876.562000,0.213,-0.947,-0.059,-9.64,37.2,11.54
503876.609000,0.186,-1.004,-0.031,-12.33,34.67,16.66
503876.656000,0.141,-1.083,0.031,-15.02,29.6,10.56
503876.703000,0.144,-1.049,0.004,0.64,11.2,9.49
503876.750000,0.142,-1.032,-0.013,-8.12,7.08,-7.08
503876.796000,0.136,-0.97,-0.014,1.43,-6.04,-2.75
503876.843000,0.143,-0.951,-0.041,1.98,-16.39,1.92
503876.890000,0.145,-0.932,-0.081,22.37,-26.83,17.94
503876.937000,0.134,-0.981,-0.126,9.31,-10.71,14.44
503876.984000,0.121,-0.96,-0.061,-5.68,-0.34,5.95
503877.031000,0.14,-0.97,-0.026,2.26,-2.87,15.53
503877.078000,0.088,-1.077,-0.027,1.1,-8.45,21.94
503877.125000,0.068,-1.073,-0.021,1.37,-17.76,12.18
503877.171000,0.087,-1.045,-0.058,-5.07,-19.78,2.62
503877.218000,0.089,-1.029,-0.072,-10.44,-10.35,-8.58
503877.265000,0.079,-1.028,-0.099,-6.35,-8.67,-10.99
503877.312000,0.07,-1.018,-0.138,0.0,-1.04,-12.88
503877.359000,0.094,-0.921,-0.135,-0.4,4.21,-14.04
503877.406000,0.109,-0.932,-0.146,2.84,12.3,-6.71
503877.453000,0.122,-0.92,-0.129,0.09,17.7,-2.47
503877.500000,0.128,-0.965,-0.1,5.43,21.61,4.15
503877.546000,0.133,-0.944,-0.06,1.43,26.58,4.7
503877.593000,0.143,-0.982,0.003,-1.31,26.06,13.86
503877.640000,0.127,-1.04,0.028,4.0,14.74,13.52
503877.687000,0.118,-1.033,-0.001,-1.62,9.0,3.02
503877.734000,0.124,-1.006,-0.001,-0.12,6.23,-1.04
503877.781000,0.121,-0.982,-0.024,1.65,5.65,0.0
503877.828000,0.098,-1.015,-0.017,1.28,0.92,3.91
503877.875000,0.103,-1.018,-0.085,8.27,1.74,-1.28
503877.921000,0.102,-0.948,-0.057,4.67,5.62,-3.11
503877.968000,0.099,-0.928,-0.019,12.51,8.42,5.37
503878.015000,0.041,-0.979,0.012,11.6,5.86,11.54
503878.062000,0.076,-1.018,-0.057,-1.62,-0.89,5.13
503878.109000,0.08,-1.023,-0.073,-10.19,10.47,0.18
503878.156000,0.128,-0.951,-0.083,-2.99,9.46,5.89
503878.203000,0.142,-0.953,-0.06,-5.46,16.88,13.89
503878.250000,0.119,-1.0,0.021,-13.15,18.52,12.48
503878.296000,0.096,-1.015,0.055,-11.29,10.77,12.09
503878.343000,0.068,-1.049,0.037,-10.65,0.79,10.47
503878.390000,0.033,-1.154,0.028,-1.8,-6.13,7.93
503878.437000,-0.005,-1.176,-0.026,-8.3,-15.23,-3.14
503878.484000,0.049,-0.986,-0.073,-1.19,-19.1,-25.88
503878.531000,0.051,-0.912,-0.12,-3.3,-17.82,-24.02
503878.593000,0.072,-0.869,-0.129,1.56,-5.49,-13.52
503878.640000,0.066,-0.91,-0.14,4.85,-2.78,5.19
503878.687000,0.062,-0.974,-0.135,1.92,4.3,10.25
503878.734000,0.085,-1.001,-0.136,-0.4,6.47,9.67
503878.781000,0.099,-1.008,-0.115,0.06,16.94,8.15
503878.828000,0.092,-0.987,-0.056,0.98,18.37,10.38
503878.875000,0.069,-1.031,-0.045,1.28,18.49,10.59
503878.937000,0.047,-1.037,0.002,2.38,15.53,5.4
503878.984000,0.039,-1.036,-0.024,-0.52,6.23,-0.31
503879.031000,0.054,-0.995,-0.029,0.58,6.38,-4.21
503879.078000,0.062,-0.99,-0.053,2.59,4.79,-2.04
503879.125000,0.081,-0.974,-0.059,2.38,8.88,-4.18
503879.171000,0.076,-0.973,-0.049,2.08,11.57,-0.4
503879.218000,0.066,-1.011,-0.025,4.85,12.76,3.33
503879.265000,0.068,-1.009,0.027,3.97,9.31,3.23
503879.312000,0.063,-1.018,0.046,1.77,-0.12,2.35
503879.359000,0.063,-0.993,0.018,-0.79,-11.14,-2.96
503879.406000,0.035,-0.999,0.003,-0.46,-14.95,-1.43
503879.453000,0.034,-1.009,-0.04,2.01,-16.39,-2.87
503879.500000,0.07,-0.939,-0.05,5.52,-13.61,-1.92
503879.546000,0.068,-0.972,-0.034,3.66,-7.84,6.71
503879.593000,0.058,-0.988,-0.001,2.9,-9.95,7.84
503879.640000,0.047,-1.018,0.014,-2.78,-15.69,9.28
503879.687000,0.038,-1.047,0.006,-3.94,-24.75,3.57
503879.734000,0.038,-1.032,-0.016,-3.75,-27.59,-1.16
503879.781000,0.031,-1.04,-0.074,-1.56,-26.7,-3.69
503879.828000,0.039,-0.995,-0.074,2.04,-21.42,-6.47
503879.875000,0.045,-0.991,-0.095,2.81,-14.4,-3.27
503879.921000,0.008,-0.922,-0.044,-1.92,-8.45,-0.52
503879.968000,0.042,-0.979,-0.057,-18.74,-22.71,1.19
503880.015000,0.069,-1.197,-0.153,-23.04,-24.93,-7.78
503880.062000,0.116,-1.202,-0.17,-35.0,-14.95,-32.84
503880.109000,0.149,-1.128,-0.161,-33.88,6.16,-54.63
503880.156000,0.178,-1.094,-0.142,-39.58,11.9,-70.07
503880.203000,0.32,-1.105,-0.129,-37.84,16.3,-84.38
503880.250000,0.462,-1.094,-0.112,-41.81,0.31,-110.87
503880.296000,0.536,-0.896,-0.202,-38.33,18.07,-133.98
503880.343000,0.403,-1.01,-0.323,-96.44,35.89,-134.53
503880.390000,0.289,-0.941,-0.483,-63.3,51.06,-141.39
503880.437000,0.284,-0.82,-0.545,-99.55,97.96,-172.09
503880.484000,0.311,-0.607,-0.471,-45.69,69.58,-155.71
503880.531000,0.62,-0.374,-0.393,-9.58,79.5,-130.68
503880.578000,0.657,-0.227,-0.214,-6.41,69.03,-122.56
503880.625000,0.747,0.054,-0.091,18.59,25.18,-79.74
503880.671000,0.907,0.148,-0.02,20.81,-1.53,-23.99
503880.718000,0.934,0.013,-0.07,15.78,-20.54,21.15
503880.765000,1.096,-0.032,-0.187,-0.12,-41.47,27.65
503880.812000,1.014,-0.132,-0.259,-32.23,9.37,22.37
503880.859000,0.972,-0.334,-0.23,-26.34,11.9,37.75
503880.906000,0.863,-0.385,-0.184,-45.72,19.38,20.08
503880.953000,0.927,-0.347,-0.199,-37.32,4.21,-3.88
503881.000000,0.955,-0.276,-0.217,-28.69,-7.81,-7.97
503881.046000,0.967,-0.287,-0.292,-20.97,-4.33,12.97
503881.093000,0.876,-0.333,-0.202,-13.4,7.72,15.14
503881.140000,0.88,-0.278,-0.231,-19.99,5.83,13.28
503881.187000,0.902,-0.354,-0.287,-9.0,-8.76,12.76
503881.234000,0.895,-0.322,-0.326,-6.81,0.92,3.11
503881.281000,0.912,-0.287,-0.245,5.49,-12.82,4.09
503881.328000,0.893,-0.288,-0.252,-7.14,4.67,2.17
503881.375000,0.893,-0.224,-0.169,0.82,-6.78,0.89
503881.421000,0.91,-0.276,-0.193,-10.01,-13.67,9.8
503881.468000,0.897,-0.302,-0.217,-8.82,-19.53,6.93
503881.515000,0.893,-0.331,-0.313,-4.67,-19.71,8.82
503881.562000,0.862,-0.32,-0.292,-2.38,-19.75,3.48
503881.609000,0.876,-0.316,-0.349,-2.14,-18.19,7.32
503881.656000,0.857,-0.33,-0.333,-2.78,-14.5,2.59
503881.703000,0.864,-0.343,-0.391,0.49,-17.43,11.6
503881.750000,0.854,-0.351,-0.426,1.25,-10.83,5.8
503881.796000,0.851,-0.339,-0.394,3.81,-5.4,1.62
503881.843000,0.874,-0.347,-0.459,-0.03,3.85,-0.15
503881.890000,0.866,-0.328,-0.394,1.16,7.51,-2.59
503881.937000,0.866,-0.331,-0.398,-1.31,11.11,-2.87
503881.984000,0.859,-0.313,-0.346,3.39,19.04,-2.99
503882.031000,0.871,-0.301,-0.298,-5.01,21.27,-0.27
503882.078000,0.861,-0.32,-0.294,-3.11,9.92,5.07
503882.125000,0.839,-0.324,-0.313,-1.83,7.48,5.95
503882.171000,0.839,-0.317,-0.276,2.08,7.75,3.69
503882.234000,0.858,-0.321,-0.291,-1.07,1.56,7.17
503882.281000,0.871,-0.329,-0.285,-2.75,1.34,7.35
503882.328000,0.879,-0.363,-0.327,-4.36,-1.13,9.7
503882.375000,0.867,-0.375,-0.332,-3.91,3.63,4.12
503882.421000,0.877,-0.365,-0.316,1.74,7.78,3.54
503882.468000,0.883,-0.371,-0.323,2.17,6.47,3.69
503882.515000,0.866,-0.373,-0.271,0.34,9.86,-1.16
503882.562000,0.868,-0.376,-0.271,7.39,5.68,8.0
503882.609000,0.864,-0.391,-0.254,2.56,11.23,1.59
503882.656000,0.856,-0.379,-0.238,11.11,1.04,6.78
503882.703000,0.884,-0.426,-0.314,9.03,2.81,7.05
503882.750000,0.861,-0.365,-0.27,6.81,6.41,-9.4
503882.796000,0.886,-0.397,-0.286,8.58,6.26,-3.45
503882.843000,0.881,-0.335,-0.275,6.35,9.74,-6.74
503882.890000,0.89,-0.355,-0.259,8.55,10.44,4.27
503882.937000,0.866,-0.36,-0.191,-1.28,14.19,0.55
503882.984000,0.868,-0.383,-0.197,3.02,10.19,4.15
503883.031000,0.872,-0.359,-0.205,-4.76,8.55,4.03
503883.078000,0.864,-0.388,-0.214,-2.96,5.77,4.21
503883.125000,0.855,-0.379,-0.193,-4.36,-1.8,0.03
503883.171000,0.874,-0.423,-0.226,-2.99,-2.32,6.26
503883.218000,0.891,-0.359,-0.224,-2.84,2.81,-5.68
503883.265000,0.886,-0.384,-0.182,-6.26,2.53,2.29
503883.312000,0.892,-0.413,-0.241,-0.24,3.63,1.31
503883.359000,0.877,-0.373,-0.196,-7.51,4.79,-5.52
503883.406000,0.878,-0.407,-0.218,0.76,4.58,-4.79
503883.453000,0.861,-0.375,-0.189,-5.19,4.33,-11.75
503883.500000,0.832,-0.384,-0.155,-5.92,-2.69,-11.6
503883.546000,0.874,-0.318,-0.214,-13.7,-12.91,-23.35
503883.593000,0.909,-0.288,-0.237,-12.91,-13.18,-20.29
503883.640000,0.928,-0.295,-0.282,-12.15,-10.71,-14.28
503883.687000,0.907,-0.326,-0.274,-10.41,-7.63,-7.51
503883.734000,0.909,-0.319,-0.265,-18.98,-2.75,-15.26
503883.781000,0.898,-0.298,-0.276,-15.32,-0.76,-19.07
503883.828000,0.907,-0.27,-0.303,-8.79,-4.58,-15.75
503883.875000,0.934,-0.257,-0.268,-4.43,-5.25,-12.18
503883.921000,0.896,-0.235,-0.284,6.56,-7.78,-6.16
503883.968000,0.925,-0.234,-0.276,6.44,-5.01,-5.19
503884.015000,0.912,-0.203,-0.294,5.71,-6.78,-2.08
503884.062000,0.937,-0.226,-0.336,10.01,-3.39,4.39
503884.109000,0.912,-0.228,-0.287,5.28,6.29,-2.5
503884.156000,0.927,-0.255,-0.299,8.39,3.27,1.22
503884.203000,0.9,-0.257,-0.261,5.07,9.34,-2.93
503884.250000,0.904,-0.218,-0.273,9.58,0.55,-1.19
503884.296000,0.893,-0.244,-0.254,1.53,6.78,-3.75
503884.359000,0.915,-0.255,-0.312,0.4,0.7,-1.83
503884.406000,0.912,-0.229,-0.274,-3.27,5.19,-8.18
503884.453000,0.925,-0.209,-0.311,-3.42,2.53,-2.23
503884.500000,0.93,-0.194,-0.281,-9.25,4.58,-3.75
503884.546000,0.915,-0.213,-0.298,-13.46,5.34,0.79
503884.593000,0.91,-0.237,-0.289,-10.74,4.76,0.61
503884.640000,0.893,-0.207,-0.271,-12.82,6.29,0.24
503884.687000,0.911,-0.231,-0.244,-2.87,1.8,7.66
503884.750000,0.91,-0.216,-0.203,-3.63,-1.59,3.81
503884.796000,0.92,-0.221,-0.206,4.49,-10.93,8.42
503884.843000,0.926,-0.231,-0.203,0.21,-7.32,5.04
503884.890000,0.923,-0.27,-0.23,2.23,-10.38,5.8
503884.937000,0.919,-0.292,-0.313,4.33,-6.68,5.43
503884.984000,0.91,-0.292,-0.29,16.21,-5.1,0.4
503885.031000,0.901,-0.252,-0.28,17.88,3.51,-5.04
503885.078000,0.916,-0.229,-0.276,21.15,0.12,-0.73
503885.125000,0.892,-0.261,-0.249,16.63,2.01,-0.98
503885.171000,0.886,-0.244,-0.279,13.7,-5.55,-2.23
503885.218000,0.914,-0.239,-0.281,13.37,-5.52,-4.39
503885.265000,0.91,-0.243,-0.32,10.77,-6.29,0.95
503885.312000,0.917,-0.256,-0.299,5.19,-1.83,-3.51
503885.359000,0.917,-0.265,-0.323,6.59,0.27,-2.01
503885.406000,0.907,-0.256,-0.293,0.85,4.91,-4.09
503885.453000,0.896,-0.282,-0.306,-5.19,2.53,-5.43
503885.500000,0.918,-0.231,-0.352,-3.63,1.95,-4.64
503885.546000,0.919,-0.217,-0.288,-11.9,13.34,-5.46
503885.593000,0.919,-0.211,-0.295,-6.87,8.61,2.72
503885.640000,0.889,-0.253,-0.213,-14.68,15.32,1.31
503885.687000,0.92,-0.271,-0.241,-11.02,9.55,3.45
503885.734000,0.932,-0.265,-0.228,-8.82,7.72,1.5
503885.781000,0.951,-0.282,-0.25,-8.88,7.84,-1.19
503885.828000,0.953,-0.255,-0.225,-3.66,11.87,-6.65
503885.875000,0.928,-0.232,-0.176,-0.98,14.65,-7.72
503885.921000,0.935,-0.206,-0.117,0.82,7.75,-5.62
503885.968000,0.965,-0.223,-0.061,11.05,5.16,-3.17
503886.015000,0.972,-0.203,-0.001,17.06,7.39,-3.75
503886.062000,0.984,-0.234,0.138,27.13,10.8,-8.94
503886.109000,0.964,-0.175,0.204,28.11,2.14,-16.05
503886.156000,1.01,-0.028,0.361,29.69,5.74,-31.92
503886.203000,1.005,-0.002,0.311,5.95,-7.14,-16.91
503886.250000,0.951,-0.201,0.261,-9.95,-33.57,11.47
503886.296000,1.02,-0.129,0.041,-41.41,-19.75,-16.21
503886.343000,0.805,-0.274,-0.115,-52.06,-50.29,28.02
503886.390000,0.866,-0.195,-0.374,-51.06,-37.08,-19.01
503886.437000,0.693,0.059,-0.49,-82.67,-62.35,-19.78
503886.500000,0.918,-0.268,-1.108,-30.24,-58.93,40.13
503886.546000,0.694,0.214,-0.824,-88.29,-15.35,-20.23
503886.609000,0.673,-0.035,-0.933,-48.07,-73.61,60.52
503886.656000,0.711,-0.314,-0.758,-5.16,-43.55,60.24
503886.703000,0.914,-0.231,-0.917,0.06,-6.87,6.81
503886.750000,0.815,-0.161,-0.611,15.02,-1.46,20.17
503886.796000,0.892,-0.266,-0.501,23.71,8.55,-6.23
503886.843000,0.741,-0.082,-0.574,-11.66,-2.23,-13.09
503886.890000,0.809,-0.193,-0.541,-0.85,-3.36,-0.37
503886.937000,0.845,-0.15,-0.593,-3.45,-1.01,1.19
503886.984000,0.799,-0.179,-0.539,0.95,-4.12,-5.31
503887.031000,0.732,-0.168,-0.536,0.49,-3.27,7.84
503887.078000,0.747,-0.199,-0.539,-8.85,-4.15,-11.51
503887.125000,0.802,-0.162,-0.522,0.52,-4.06,2.99
503887.171000,0.806,-0.188,-0.576,8.7,-3.42,5.4
503887.218000,0.779,-0.15,-0.522,-5.95,-5.01,-2.26
503887.265000,0.864,-0.211,-0.574,4.36,-0.21,7.78
503887.312000,0.82,-0.136,-0.518,-0.67,1.31,-3.39
503887.359000,0.786,-0.175,-0.574,-1.92,-1.13,8.48
503887.406000,0.787,-0.188,-0.508,-4.64,-2.01,-1.31
503887.453000,0.795,-0.177,-0.528,-1.4,-3.94,12.15
503887.500000,0.763,-0.202,-0.532,-0.92,-3.54,2.87
503887.546000,0.793,-0.196,-0.557,-4.97,-5.31,0.64
503887.593000,0.82,-0.204,-0.561,-1.83,-6.16,7.32
503887.656000,0.803,-0.229,-0.546,-0.58,-3.45,1.62
503887.703000,0.782,-0.207,-0.552,-0.4,-2.81,4.76
503887.750000,0.768,-0.22,-0.563,-0.21,-4.15,3.6
503887.796000,0.772,-0.177,-0.561,-3.6,-1.56,-2.81
503887.843000,0.777,-0.209,-0.585,2.08,-3.48,1.77
503887.890000,0.777,-0.157,-0.563,0.18,0.37,-3.75
503887.937000,0.766,-0.2,-0.542,-2.14,-6.2,3.42
503887.984000,0.801,-0.193,-0.584,2.14,0.85,-0.06
503888.031000,0.751,-0.193,-0.57,-3.42,-0.43,-1.31
503888.078000,0.781,-0.21,-0.599,-5.07,-0.89,-4.55
503888.125000,0.788,-0.154,-0.57,-1.77,2.41,-4.91
503888.171000,0.756,-0.179,-0.548,-3.02,-2.96,-0.89
503888.218000,0.764,-0.185,-0.599,1.65,3.17,1.43
503888.265000,0.797,-0.19,-0.587,-1.43,-2.44,-2.96
503888.312000,0.771,-0.172,-0.581,8.76,4.58,5.74
503888.375000,0.766,-0.164,-0.571,-1.77,-0.06,-6.23
503888.421000,0.774,-0.208,-0.569,3.69,2.99,2.53
503888.468000,0.763,-0.157,-0.57,-0.43,-2.23,-5.43
503888.515000,0.759,-0.165,-0.531,-2.29,-0.85,-0.52
503888.562000,0.781,-0.205,-0.611,3.57,-2.14,5.89
503888.609000,0.774,-0.211,-0.576,4.7,2.08,0.98
503888.656000,0.83,-0.212,-0.673,9.03,4.12,-2.81
503888.703000,0.779,-0.208,-0.612,17.91,4.58,7.9
503888.750000,0.81,-0.286,-0.715,26.64,12.48,-3.72
503888.796000,0.716,-0.221,-0.639,33.48,26.7,-15.93
503888.843000,0.758,-0.218,-0.782,41.29,14.44,-10.9
503888.890000,0.663,-0.272,-0.883,70.25,50.69,-11.66
503888.937000,0.577,-0.09,-0.958,73.92,35.68,-15.14
503888.984000,0.717,-0.299,-0.648,109.23,70.62,0.0
503889.031000,0.809,-0.119,-0.482,62.84,43.03,-28.08
503889.078000,0.805,-0.41,-0.272,72.08,46.91,7.39
503889.125000,0.942,-0.269,-0.234,37.42,37.63,-29.05
503889.171000,0.816,-0.337,-0.167,23.8,49.62,-9.49
503889.218000,0.937,-0.31,-0.071,28.63,71.38,-19.01
503889.265000,0.917,-0.174,0.175,17.03,71.32,-19.62
503889.312000,0.856,-0.213,0.298,26.61,64.79,-4.33
503889.359000,0.999,0.059,0.332,-11.81,42.73,-23.16
503889.406000,0.916,-0.146,0.373,-4.55,30.49,16.39
503889.453000,1.049,-0.137,0.215,-44.62,23.68,-7.66
503889.500000,0.907,-0.354,0.221,-34.61,21.67,9.98
503889.546000,1.027,-0.379,0.09,-34.09,12.67,-5.43
503889.593000,0.908,-0.354,0.139,-13.06,23.5,-14.25
503889.640000,0.95,-0.242,0.188,-23.71,17.7,-25.45
503889.687000,0.871,-0.181,0.198,-15.66,-3.63,-0.7
503889.734000,0.839,-0.194,0.206,-27.34,-12.27,-7.05
503889.781000,0.891,-0.17,0.121,-39.19,-57.25,18.59
503889.843000,0.964,-0.225,-0.035,-33.2,-44.65,-1.1
503889.890000,1.042,-0.339,-0.115,-23.38,-40.83,4.82
503889.937000,1.047,-0.325,-0.188,-4.58,-7.32,-9.31
503889.984000,1.006,-0.224,-0.132,8.61,-5.71,-11.81
503890.031000,0.928,-0.196,-0.052,-4.03,5.4,-16.88
503890.078000,0.906,-0.193,-0.065,-6.2,-7.08,2.2
503890.125000,0.922,-0.212,-0.096,-6.41,-14.92,6.1
503890.171000,0.947,-0.213,-0.154,-14.5,-14.22,3.08
503890.218000,0.969,-0.232,-0.178,-9.19,-12.18,17.03
503890.265000,0.954,-0.224,-0.16,-17.91,-1.4,7.05
503890.312000,0.93,-0.277,-0.13,-7.39,4.36,13.37
503890.359000,0.898,-0.292,-0.069,0.12,1.07,6.01
503890.406000,0.966,-0.246,-0.165,0.92,-1.04,-11.35
503890.453000,0.967,-0.218,-0.12,2.08,2.5,-4.85
503890.500000,0.962,-0.275,-0.175,6.62,1.31,4.7
503890.546000,0.925,-0.271,-0.084,4.52,7.6,-4.91
503890.593000,0.95,-0.288,-0.11,13.82,-0.7,-0.21
503890.640000,0.956,-0.206,-0.072,7.6,5.83,-12.76
503890.687000,0.973,-0.227,-0.108,13.52,-2.17,-2.01
503890.734000,0.956,-0.225,-0.112,10.59,2.53,-2.59
503890.781000,0.946,-0.188,-0.079,9.49,0.18,-8.36
503890.828000,0.947,-0.226,-0.04,9.03,-0.61,-4.52
503890.875000,0.973,-0.208,0.019,8.15,-0.58,-5.22
503890.921000,0.988,-0.267,0.144,-1.83,0.0,-10.07
503890.968000,0.981,-0.155,0.293,14.5,19.87,-27.38
503891.015000,0.894,-0.196,0.344,-5.28,6.32,-25.94
503891.062000,0.916,-0.184,0.317,29.05,-1.71,-20.78
503891.125000,0.94,-0.302,0.121,9.89,-41.02,-6.07
503891.187000,0.94,0.039,0.113,-9.13,8.82,-55.36
503891.234000,0.893,-0.079,-0.094,11.44,-74.65,26.46
503891.281000,0.788,0.141,-0.091,-62.65,-27.16,-33.6
503891.328000,0.923,-0.098,-0.457,-21.18,-75.17,31.65
503891.375000,0.856,0.084,-0.552,-51.73,-30.58,-19.47
503891.421000,0.79,0.105,-0.7,-14.04,-64.55,24.63
503891.484000,0.662,-0.155,-0.545,-44.95,-47.73,10.59
503891.531000,0.955,-0.084,-0.971,-63.81,-61.28,1.59
503891.578000,0.837,-0.093,-0.75,-61.92,-38.73,-4.94
503891.625000,1.062,-0.266,-0.923,-24.75,-49.53,22.98
503891.671000,1.026,-0.273,-0.766,20.57,6.74,40.89
503891.718000,0.741,-0.12,-0.611,10.86,5.43,2.69
503891.781000,0.699,-0.096,-0.363,0.58,-5.25,12.76
503891.828000,0.731,-0.029,-0.516,-6.68,-11.2,0.85
503891.875000,0.837,-0.119,-0.531,-2.9,-8.45,1.53
503891.921000,0.876,-0.086,-0.656,10.53,-2.38,3.88
503891.968000,0.867,-0.137,-0.488,4.7,0.46,3.81
503892.015000,0.826,-0.057,-0.455,5.8,6.65,-2.96
503892.062000,0.821,-0.115,-0.544,-5.8,-10.65,7.17
503892.109000,0.797,-0.098,-0.475,-5.34,-0.34,1.4
503892.156000,0.819,-0.148,-0.531,-0.82,-6.93,7.32
503892.218000,0.798,-0.161,-0.503,-0.15,-3.02,2.35
503892.265000,0.808,-0.178,-0.522,2.72,-0.79,4.94
503892.312000,0.805,-0.125,-0.482,-0.85,-1.13,2.99
503892.359000,0.826,-0.137,-0.544,4.67,1.65,3.94
503892.406000,0.786,-0.11,-0.532,-6.53,-8.0,-0.58
503892.453000,0.82,-0.165,-0.506,4.58,0.82,5.77
503892.500000,0.822,-0.113,-0.532,-4.33,-4.06,-2.84
503892.546000,0.782,-0.161,-0.528,-0.55,-2.14,3.14
503892.593000,0.832,-0.171,-0.548,-2.2,-7.84,3.11
503892.640000,0.807,-0.157,-0.512,4.03,5.58,4.06
503892.687000,0.802,-0.124,-0.569,-2.41,-3.78,-1.13
503892.734000,0.828,-0.156,-0.535,5.22,1.5,2.29
503892.781000,0.8,-0.145,-0.534,1.65,-1.74,0.43
503892.828000,0.795,-0.159,-0.511,4.58,-0.4,3.42
503892.875000,0.804,-0.166,-0.541,-4.24,0.61,-6.29
503892.921000,0.787,-0.16,-0.545,6.16,3.63,8.58
503892.968000,0.809,-0.163,-0.528,-3.69,-2.47,-7.78
503893.015000,0.84,-0.141,-0.584,0.95,-0.89,4.21
503893.062000,0.805,-0.181,-0.53,1.13,-1.13,0.0
503893.109000,0.799,-0.118,-0.553,-2.26,4.12,-7.84
503893.156000,0.789,-0.166,-0.515,-0.27,-1.43,4.76
503893.203000,0.794,-0.14,-0.522,-1.34,2.11,-1.04
503893.265000,0.806,-0.143,-0.536,-0.95,-4.03,2.08
503893.312000,0.808,-0.182,-0.552,-0.55,-0.34,2.96
503893.359000,0.797,-0.152,-0.54,-1.1,-2.23,-0.73
503893.406000,0.806,-0.158,-0.549,2.53,-1.92,3.08
503893.453000,0.789,-0.15,-0.527,-1.62,-0.64,-1.46
503893.500000,0.803,-0.147,-0.564,1.01,-3.3,1.59
503893.546000,0.787,-0.171,-0.551,-0.27,-3.17,0.61
503893.593000,0.801,-0.142,-0.544,-1.71,-2.17,-4.12
503893.640000,0.787,-0.166,-0.57,2.62,0.73,5.04
503893.687000,0.813,-0.159,-0.558,-0.15,-3.48,-2.75
503893.734000,0.773,-0.131,-0.536,1.28,1.31,3.3
503893.781000,0.803,-0.159,-0.572,-2.26,-2.47,-0.92
503893.828000,0.789,-0.173,-0.539,1.46,-0.31,3.17
503893.875000,0.792,-0.149,-0.571,-2.53,0.67,-5.62
503893.921000,0.818,-0.16,-0.557,0.7,-0.95,2.69
503893.968000,0.774,-0.158,-0.561,3.39,-3.17,6.44
503894.015000,0.794,-0.169,-0.564,-2.2,2.96,-4.12
503894.062000,0.794,-0.141,-0.57,2.72,-3.42,4.39
503894.109000,0.782,-0.152,-0.54,-1.5,-1.98,1.98
503894.156000,0.776,-0.184,-0.586,2.26,-2.41,7.05
503894.203000,0.79,-0.169,-0.563,-0.55,2.32,-4.85
503894.250000,0.767,-0.162,-0.584,4.09,-2.9,4.7
503894.296000,0.805,-0.203,-0.611,7.11,2.5,-2.11
503894.343000,0.781,-0.142,-0.589,9.74,5.98,-3.69
503894.390000,0.817,-0.162,-0.614,12.18,9.77,-3.54
503894.437000,0.824,-0.162,-0.582,13.46,8.48,-5.4
503894.484000,0.838,-0.156,-0.603,14.53,14.5,-1.5
503894.531000,0.804,-0.201,-0.522,17.0,15.66,-2.59
503894.578000,0.804,-0.144,-0.533,15.38,13.49,-4.06
503894.625000,0.82,-0.231,-0.493,16.27,14.83,5.28
503894.671000,0.73,-0.23,-0.526,9.34,10.01,2.9
503894.718000,0.797,-0.275,-0.587,22.0,10.44,-3.91
503894.765000,0.807,-0.194,-0.6,27.34,12.54,-10.99
503894.812000,0.85,-0.245,-0.603,42.09,21.49,-1.16
503894.859000,0.867,-0.14,-0.691,38.27,33.08,-20.08
503894.906000,0.843,-0.361,-0.585,61.53,32.62,21.94
503894.953000,0.761,-0.151,-0.734,39.34,33.45,-12.39
503895.000000,0.761,-0.318,-0.579,63.26,32.26,21.91
503895.046000,0.793,-0.339,-0.234,34.88,73.46,0.92
503895.093000,0.75,-0.317,-0.197,16.33,43.73,-9.31
503895.140000,0.834,-0.447,-0.206,1.71,79.17,2.32
503895.187000,0.785,-0.491,-0.014,17.76,75.72,2.66
503895.234000,0.902,-0.393,0.17,12.88,74.16,-26.12
503895.281000,0.852,-0.261,0.372,46.69,46.97,13.15
503895.328000,0.988,0.069,0.547,42.6,1.07,2.32
503895.375000,1.116,0.32,0.383,-15.02,7.54,-15.53
503895.421000,0.965,-0.34,0.207,-38.24,-21.58,32.53
503895.468000,1.005,-0.453,0.027,-57.53,-1.25,-33.36
503895.515000,0.945,-0.417,0.075,-22.71,1.92,-13.58
503895.562000,0.881,-0.288,0.064,-30.95,6.13,-19.23
503895.609000,0.92,-0.303,0.027,-14.98,-4.94,-4.52
503895.656000,0.966,-0.238,-0.009,-22.19,-21.55,-3.78
503895.703000,0.954,-0.236,-0.033,-38.73,-14.22,-3.78
503895.765000,1.036,-0.249,-0.127,-33.57,-0.34,-14.59
503895.812000,0.924,-0.338,-0.089,-8.67,1.04,-3.66
503895.859000,0.914,-0.254,-0.095,4.85,9.19,-19.59
503895.906000,0.892,-0.212,-0.035,8.61,2.66,-13.79
503895.953000,0.941,-0.147,-0.051,5.49,-2.75,-7.9
503896.015000,0.951,-0.192,-0.105,4.73,-17.98,8.88
503896.062000,0.929,-0.23,-0.081,-4.76,6.53,-3.39
503896.109000,0.971,-0.271,-0.113,9.13,-13.76,9.46
503896.156000,0.977,-0.251,-0.138,5.52,10.62,-5.19
503896.203000,0.972,-0.194,-0.114,7.14,-2.32,2.11
503896.250000,0.945,-0.153,-0.046,-1.62,11.93,-8.09
503896.296000,0.921,-0.184,0.014,-0.4,1.04,5.01
503896.343000,0.944,-0.182,-0.035,-8.58,-9.31,4.46
503896.390000,0.986,-0.287,-0.116,-1.07,-9.43,7.87
503896.437000,0.982,-0.268,-0.108,-4.79,0.12,0.34
503896.484000,0.97,-0.259,-0.094,6.13,2.72,-0.46
503896.531000,0.928,-0.212,-0.022,9.28,3.08,-3.11
503896.578000,0.949,-0.196,-0.056,7.66,-7.17,1.34
503896.625000,0.944,-0.249,-0.08,13.34,-12.36,3.75
503896.671000,1.02,-0.196,-0.115,11.05,-0.76,-2.35
503896.718000,0.991,-0.232,-0.06,14.77,3.17,4.67
503896.765000,0.96,-0.241,-0.002,17.37,7.93,-1.28
503896.812000,0.927,-0.228,0.122,24.2,5.98,-4.58
503896.859000,0.855,-0.148,0.333,17.27,18.95,-29.36
503896.906000,0.833,-0.12,0.631,19.68,13.89,-36.96
503896.953000,0.847,0.035,0.478,-15.59,-18.19,-45.47
503897.000000,1.056,-0.067,0.218,-10.07,-36.87,-17.15
503897.046000,0.942,-0.05,0.162,-39.55,-33.57,-23.35
503897.093000,1.039,-0.392,-0.335,-12.6,-94.52,34.39
503897.140000,0.917,-0.194,-0.13,-42.12,-6.56,-46.17
503897.187000,0.883,-0.301,-0.545,-29.85,-93.3,27.8
503897.234000,0.983,0.014,-0.503,-24.84,3.81,-40.65
503897.281000,0.686,0.224,-0.296,-33.17,-64.7,7.05
503897.328000,0.73,0.26,-0.566,-68.76,-71.47,5.19
503897.375000,0.595,0.231,-0.747,-66.19,-115.12,65.22
503897.421000,0.813,0.002,-0.915,-70.8,-102.76,45.59
503897.468000,0.818,-0.165,-0.972,-62.96,-64.61,53.53
503897.515000,0.766,-0.284,-0.884,-9.52,-6.1,37.48
503897.562000,0.768,-0.219,-0.815,-0.09,-0.21,13.61
503897.609000,0.797,-0.148,-0.575,19.56,19.93,0.73
503897.656000,0.763,-0.154,-0.609,25.03,9.28,4.21
503897.703000,0.662,-0.086,-0.434,4.36,14.07,-4.43
503897.750000,0.847,-0.1,-0.666,-4.79,-12.76,-9.43
503897.796000,0.851,-0.262,-0.561,15.72,-1.77,13.76
503897.843000,0.811,-0.163,-0.591,0.21,4.06,-19.59
503897.890000,0.799,-0.182,-0.542,4.79,-3.51,3.81
503897.937000,0.786,-0.154,-0.582,1.8,-3.63,-6.44
503897.984000,0.786,-0.139,-0.535,2.78,0.09,2.84
503898.031000,0.82,-0.157,-0.607,11.23,1.92,-0.12
503898.078000,0.769,-0.144,-0.474,4.46,1.1,1.5
503898.125000,0.785,-0.144,-0.612,8.09,3.33,2.5
503898.171000,0.797,-0.198,-0.51,-2.75,1.13,0.15
503898.218000,0.762,-0.135,-0.555,1.25,5.4,-2.41
503898.265000,0.783,-0.188,-0.56,-0.64,-4.61,8.97
503898.312000,0.819,-0.192,-0.578,-0.34,3.81,-5.16
503898.359000,0.792,-0.159,-0.542,5.4,-2.75,7.14
503898.406000,0.776,-0.212,-0.537,1.04,4.27,-1.34
503898.453000,0.772,-0.147,-0.566,-1.89,1.59,-1.4
503898.500000,0.796,-0.177,-0.511,1.13,-1.04,2.75
503898.546000,0.764,-0.138,-0.555,-2.66,-3.66,-1.07
503898.593000,0.799,-0.191,-0.558,0.98,-3.42,5.68
503898.640000,0.794,-0.171,-0.532,-0.61,-8.85,-0.73
503898.687000,0.772,-0.156,-0.548,-0.31,4.3,-2.11
503898.734000,0.821,-0.172,-0.591,1.74,-5.89,2.41
503898.781000,0.771,-0.173,-0.539,3.51,1.1,4.76
503898.828000,0.764,-0.176,-0.547,-1.53,-3.54,1.68
503898.875000,0.792,-0.185,-0.618,5.83,1.1,3.6
503898.921000,0.771,-0.15,-0.569,-4.91,-4.24,-6.59
503898.968000,0.8,-0.207,-0.59,5.86,0.67,8.18
503899.015000,0.781,-0.158,-0.569,-3.14,-1.62,-6.59
503899.062000,0.786,-0.185,-0.555,6.04,2.17,5.95
503899.109000,0.78,-0.174,-0.603,-1.01,-0.46,0.82
503899.156000,0.77,-0.2,-0.567,0.09,-3.02,1.13
503899.203000,0.762,-0.239,-0.715,10.13,-1.56,6.35
503899.265000,0.802,-0.368,-0.973,38.7,11.44,0.58
503899.312000,0.752,-0.205,-1.117,96.04,46.21,-3.17
503899.359000,0.666,-0.09,-1.23,103.67,73.18,-24.23
503899.406000,0.601,-0.258,-0.731,112.55,72.97,12.73
503899.453000,0.679,-0.214,-0.68,66.35,31.16,-17.58
503899.500000,0.775,-0.335,-0.631,101.41,69.4,-29.08
503899.546000,0.612,-0.369,0.007,41.6,115.21,-56.67
503899.593000,0.864,-0.018,0.151,7.23,59.51,-68.79
503899.640000,0.809,-0.117,0.344,2.2,45.29,8.06
503899.687000,1.056,-0.103,0.261,-0.61,-12.33,15.2
503899.734000,1.068,-0.155,0.199,-31.28,6.96,31.5
503899.781000,1.049,-0.345,0.139,-13.79,-5.55,38.45
503899.828000,0.899,-0.303,0.237,-19.62,38.3,1.83
503899.875000,0.843,-0.277,0.398,-14.01,2.56,-8.09
503899.937000,0.829,-0.099,0.297,-39.86,-30.06,-5.95
503899.984000,1.016,-0.387,-0.123,-32.87,-55.67,5.8
503900.031000,0.985,-0.342,-0.153,-24.23,8.18,0.49
503900.078000,1.031,-0.303,-0.123,2.62,-3.94,9.09
503900.125000,0.918,-0.249,-0.015,-9.34,23.83,-0.92
503900.171000,1.001,-0.264,-0.149,-11.75,-5.92,16.91
503900.218000,0.94,-0.326,-0.083,-14.8,7.2,-4.52
503900.265000,0.95,-0.319,-0.149,-1.4,-1.95,12.63
503900.312000,0.947,-0.239,-0.093,-13.43,13.73,-14.47
503900.375000,0.919,-0.313,-0.142,3.69,7.51,7.05
503900.421000,0.915,-0.269,-0.088,-13.03,8.03,-3.14
503900.484000,0.913,-0.318,-0.132,-2.66,-0.92,8.15
503900.531000,0.891,-0.281,-0.097,-7.63,6.1,-10.65
503900.578000,0.929,-0.287,-0.128,4.39,-10.07,0.98
503900.625000,0.925,-0.297,-0.155,-3.08,-4.76,-0.49
503900.671000,0.978,-0.327,-0.16,3.66,-5.89,-1.68
503900.718000,0.943,-0.294,-0.104,3.97,6.01,1.86
503900.765000,0.954,-0.284,-0.165,6.1,3.69,-0.12
503900.812000,0.896,-0.302,-0.077,1.89,2.38,2.11
503900.859000,0.947,-0.304,-0.165,7.93,-1.56,-3.14
503900.906000,0.921,-0.25,-0.099,4.39,2.04,-0.09
503900.953000,0.931,-0.281,-0.108,-3.69,3.02,-1.98
503901.000000,0.929,-0.323,-0.111,1.04,-2.26,6.9
503901.046000,0.938,-0.284,-0.114,0.06,0.58,-4.58
503901.093000,0.956,-0.308,-0.113,2.87,-0.79,3.27
503901.140000,0.939,-0.29,-0.08,2.72,0.7,0.15
503901.187000,0.949,-0.322,-0.072,10.74,-1.46,2.08
503901.234000,0.963,-0.261,0.04,11.81,-3.14,-3.94
503901.281000,0.995,-0.321,0.11,15.96,-8.03,-10.47
503901.328000,1.009,-0.297,0.237,16.21,-6.9,-29.69
503901.375000,0.907,-0.12,0.406,14.65,2.26,-38.73
503901.421000,0.924,-0.188,0.269,-0.09,-26.83,-13.31
503901.468000,0.971,-0.189,0.108,4.18,-11.35,-18.77
503901.515000,0.962,-0.277,-0.069,-6.1,-27.01,-1.22
503901.562000,0.986,-0.189,-0.032,-7.11,18.46,-30.79
503901.609000,0.803,-0.096,-0.05,-9.43,-18.16,-8.91
503901.656000,0.958,-0.253,-0.245,-20.78,-38.36,2.69
503901.703000,0.849,-0.131,-0.327,-23.71,-41.02,-13.55
503901.750000,0.83,-0.177,-0.504,-34.18,-36.29,-27.95
503901.796000,0.76,-0.11,-0.505,-53.5,-67.84,-19.17
503901.843000,0.702,0.231,-0.564,-33.33,-69.7,1.86
503901.890000,0.695,0.209,-0.657,-105.32,-95.49,-3.45
503901.937000,0.859,-0.043,-1.112,-62.62,-98.76,65.77
503901.984000,0.832,-0.236,-0.994,-46.08,-39.77,35.65
503902.031000,0.892,-0.268,-0.83,0.67,-20.17,30.12
503902.078000,0.832,-0.056,-0.676,37.02,19.35,-1.43
503902.125000,0.75,-0.004,-0.538,16.69,0.55,-0.61
503902.171000,0.843,-0.068,-0.561,19.87,9.64,9.46
503902.218000,0.804,-0.127,-0.509,3.88,-8.45,-0.55
503902.265000,0.766,-0.049,-0.515,-3.17,0.52,-0.61
503902.312000,0.832,-0.098,-0.608,-7.14,-7.84,-0.12
503902.359000,0.749,-0.153,-0.512,8.24,-4.94,17.24
503902.406000,0.822,-0.131,-0.611,-5.83,-3.85,-6.5
503902.453000,0.845,-0.158,-0.544,2.41,-9.06,11.69
503902.500000,0.8,-0.159,-0.642,-0.21,4.39,-0.7
503902.546000,0.806,-0.145,-0.557,-1.4,-5.19,4.67
503902.593000,0.779,-0.169,-0.52,5.46,5.22,6.78
503902.656000,0.794,-0.158,-0.582,-0.34,2.5,-0.21
503902.703000,0.786,-0.146,-0.548,2.32,-0.43,5.31
503902.750000,0.78,-0.158,-0.563,3.11,-1.22,6.26
503902.796000,0.788,-0.172,-0.579,-4.15,-5.01,3.17
503902.843000,0.792,-0.161,-0.543,-0.46,0.89,0.12
503902.890000,0.797,-0.169,-0.605,2.99,-3.11,6.41
503902.937000,0.779,-0.149,-0.556,-2.35,1.31,-0.7
503902.984000,0.798,-0.157,-0.593,2.04,-2.84,3.36
503903.031000,0.772,-0.16,-0.57,-0.73,-0.37,2.53
503903.078000,0.798,-0.178,-0.583,-1.1,-0.73,1.53
503903.125000,0.796,-0.176,-0.577,0.7,0.7,0.95
503903.171000,0.767,-0.166,-0.563,1.19,2.26,0.09
503903.234000,0.773,-0.169,-0.594,-2.41,-5.04,2.78
503903.296000,0.763,-0.171,-0.549,-3.88,1.5,-3.42
503903.343000,0.785,-0.158,-0.567,-1.01,0.27,1.19
503903.390000,0.75,-0.178,-0.564,0.43,-4.06,4.52
503903.437000,0.778,-0.172,-0.582,-3.08,0.31,-1.86
503903.484000,0.784,-0.211,-0.579,5.89,-4.03,8.61
503903.531000,0.768,-0.189,-0.623,5.07,-1.28,1.68
503903.578000,0.765,-0.183,-0.671,13.73,0.64,5.71
503903.625000,0.764,-0.264,-0.757,24.66,3.11,11.05
503903.671000,0.692,-0.268,-1.017,53.5,11.6,-3.97
503903.718000,0.548,-0.289,-1.072,93.97,50.72,-3.02
503903.765000,0.475,-0.209,-1.042,74.86,72.97,-52.46
503903.812000,0.659,-0.293,-0.656,85.57,56.86,-55.82
503903.859000,0.807,-0.063,-0.509,59.88,42.27,-21.61
503903.906000,0.951,-0.149,-0.249,59.57,14.95,-27.62
503903.953000,0.996,0.047,-0.234,5.25,77.21,-36.93
503904.000000,0.851,-0.185,0.09,43.0,25.73,43.21
503904.046000,1.095,-0.17,-0.072,1.37,36.1,8.73
503904.093000,0.891,-0.376,0.299,4.85,41.81,43.52
503904.140000,0.991,-0.288,0.135,-50.36,-2.81,-0.4
503904.187000,0.912,-0.322,-0.011,-41.84,-13.0,13.7
503904.234000,0.982,-0.19,-0.064,-36.53,16.39,-13.95
503904.281000,0.93,-0.311,0.025,-21.27,15.69,19.17
503904.328000,0.959,-0.282,-0.085,-34.91,23.29,1.68
503904.375000,0.963,-0.323,-0.01,-26.61,36.56,6.53
503904.421000,0.917,-0.289,-0.057,-11.87,29.51,10.71
503904.468000,0.935,-0.288,0.006,-19.65,27.13,-5.89
503904.515000,0.92,-0.311,0.022,-10.04,15.66,3.2
503904.562000,0.963,-0.273,-0.03,-7.17,9.92,-1.37
503904.609000,0.925,-0.289,0.007,-4.67,-3.75,-3.85
503904.656000,0.929,-0.301,-0.037,-3.57,3.94,-3.51
503904.703000,0.931,-0.283,-0.039,4.64,-2.56,-1.77
503904.750000,0.909,-0.308,-0.049,1.04,-0.55,-3.08
503904.796000,0.971,-0.262,-0.12,11.41,-6.35,1.43
503904.843000,0.954,-0.286,-0.074,-3.17,1.53,-7.39
503904.890000,0.986,-0.253,-0.118,-2.26,4.33,-2.41
503904.937000,0.917,-0.279,-0.061,-2.38,-1.22,-1.46
503904.984000,0.938,-0.239,-0.074,-6.23,1.13,-8.27
503905.031000,0.904,-0.308,-0.102,4.46,-7.02,1.71
503905.078000,0.94,-0.245,-0.138,-6.13,-5.28,-8.39
503905.125000,0.945,-0.255,-0.111,2.04,4.27,-3.85
503905.171000,0.935,-0.245,-0.135,2.81,-4.94,6.96
503905.218000,0.913,-0.279,-0.116,13.7,-14.4,8.97
503905.281000,0.94,-0.294,-0.125,5.19,-4.7,1.74
503905.328000,0.965,-0.193,-0.112,2.04,-3.17,1.62
503905.375000,0.956,-0.35,-0.19,2.93,-3.57,4.97
503905.421000,0.909,-0.239,-0.086,3.54,6.29,-1.74
503905.468000,0.934,-0.262,-0.097,1.83,-0.55,-2.93
503905.515000,0.913,-0.265,-0.06,-0.34,-1.16,1.07
503905.562000,0.933,-0.301,-0.085,5.62,-8.94,9.49
503905.609000,0.922,-0.26,0.006,13.7,-12.27,9.16
503905.656000,0.977,-0.301,-0.017,2.08,-10.96,2.01
503905.703000,1.024,-0.304,0.065,5.16,-8.73,-12.18
503905.750000,0.976,-0.227,0.135,7.42,5.01,-27.59
503905.796000,1.009,-0.258,0.22,9.31,-0.49,-24.84
503905.843000,0.875,-0.162,0.325,13.89,25.7,-43.21
503905.890000,0.931,-0.388,0.108,4.03,-44.98,-2.2
503905.937000,0.978,-0.177,0.074,22.19,4.94,-34.97
503905.984000,0.919,-0.204,-0.005,-4.79,-45.75,-2.62
503906.031000,0.91,-0.04,-0.082,-10.93,0.09,-23.68
503906.078000,0.764,-0.049,-0.156,-8.58,-42.97,-4.79
503906.125000,0.99,-0.18,-0.498,-27.07,-46.78,9.09
503906.171000,0.693,0.007,-0.42,-29.27,-54.26,5.74
503906.218000,0.85,-0.183,-0.704,-47.15,-64.94,14.16
503906.265000,0.925,-0.324,-0.981,-35.13,-47.4,12.91
503906.312000,0.779,0.097,-0.497,-45.53,-22.46,-25.94
503906.359000,0.71,0.164,-0.588,-59.79,-47.98,3.51
503906.406000,0.728,-0.067,-0.803,-39.12,-68.7,58.23
503906.453000,0.811,-0.227,-0.794,-47.3,-64.91,46.45
503906.500000,0.874,-0.384,-0.813,2.56,-5.86,45.96
503906.546000,0.732,-0.172,-0.659,0.55,-7.32,10.86
503906.593000,0.737,-0.173,-0.517,17.52,7.78,17.21
503906.640000,0.759,-0.063,-0.611,-4.24,-7.66,-1.83
503906.687000,0.796,-0.252,-0.541,1.46,-1.56,9.16
503906.734000,0.809,-0.071,-0.638,-0.09,-4.43,-4.88
503906.781000,0.818,-0.29,-0.524,6.62,-8.58,26.34
503906.828000,0.796,-0.234,-0.595,6.1,10.9,3.33
503906.875000,0.775,-0.276,-0.566,-2.32,-4.03,-2.17
503906.921000,0.758,-0.187,-0.534,1.74,11.9,-6.5
503906.968000,0.78,-0.284,-0.59,-5.04,-4.03,-8.15
503907.015000,0.775,-0.222,-0.489,4.24,8.64,-2.08
503907.062000,0.754,-0.204,-0.557,-2.93,-6.2,-1.4
503907.109000,0.771,-0.215,-0.531,-0.92,2.93,-0.76
503907.156000,0.788,-0.207,-0.508,-1.89,-4.24,-3.36
503907.203000,0.745,-0.208,-0.548,0.18,0.09,7.14
503907.250000,0.793,-0.232,-0.601,-4.06,-8.39,-3.54
503907.296000,0.765,-0.217,-0.511,2.04,3.39,4.36
503907.343000,0.796,-0.231,-0.609,-2.72,-5.62,-2.14
503907.390000,0.785,-0.241,-0.536,3.11,0.0,4.39
503907.437000,0.787,-0.192,-0.582,-0.24,0.55,-5.16
503907.484000,0.752,-0.237,-0.517,-4.55,0.79,1.89
503907.531000,0.782,-0.209,-0.617,-3.72,-1.5,-5.86
503907.578000,0.757,-0.204,-0.544,-2.84,-2.32,0.15
503907.625000,0.767,-0.222,-0.541,1.43,3.2,1.07
503907.671000,0.779,-0.233,-0.575,0.0,-2.29,0.67
503907.718000,0.766,-0.201,-0.554,0.06,-0.27,1.62
503907.765000,0.779,-0.24,-0.573,2.29,-0.89,3.02
503907.812000,0.759,-0.205,-0.56,-2.72,-0.34,-2.59
503907.859000,0.783,-0.209,-0.574,2.38,-1.31,2.53
503907.906000,0.736,-0.228,-0.571,-1.4,-1.31,-1.4
503907.953000,0.777,-0.219,-0.586,0.31,0.95,-0.76
503908.000000,0.758,-0.261,-0.631,4.61,-2.41,3.85
503908.046000,0.833,-0.279,-0.728,14.83,3.97,-2.75
503908.093000,0.792,-0.293,-0.845,43.95,17.7,6.41
503908.140000,0.748,-0.283,-1.001,88.38,60.76,-20.26
503908.187000,0.7,-0.206,-0.928,93.94,67.11,-15.08
503908.234000,0.598,-0.217,-0.812,94.49,61.19,-13.09
503908.281000,0.635,-0.374,-0.576,91.77,54.29,-8.12
503908.328000,0.64,-0.149,-0.554,52.77,38.18,-46.57
503908.375000,0.651,-0.389,-0.122,59.51,31.22,-5.55
503908.421000,0.944,-0.198,-0.138,15.32,-11.87,-37.48
503908.468000,0.843,-0.295,0.002,9.77,25.24,-13.4
503908.515000,1.212,-0.188,-0.06,-19.32,29.02,-8.48
503908.562000,1.037,-0.328,0.305,-19.81,44.1,27.8
503908.609000,0.953,-0.417,0.101,-30.12,27.34,19.68
503908.656000,0.922,-0.47,0.085,-24.87,24.41,-8.21
503908.703000,0.936,-0.225,-0.055,-20.84,15.29,-19.84
503908.750000,0.986,-0.242,0.036,-19.44,25.45,-13.73
503908.796000,0.901,-0.17,0.069,-22.13,34.3,-6.23
503908.843000,0.872,-0.243,0.048,-35.07,15.14,8.24
503908.890000,0.929,-0.39,0.011,-36.65,11.02,-4.91
503908.937000,0.935,-0.361,-0.035,-26.0,9.16,-0.03
503908.984000,0.91,-0.277,-0.0,-19.96,8.36,-6.32
503909.031000,0.902,-0.223,0.027,-14.19,16.69,-10.16
503909.078000,0.909,-0.268,-0.01,-9.46,-1.77,10.8
503909.125000,0.923,-0.261,-0.015,-13.95,-9.67,-1.43
503909.187000,0.99,-0.285,-0.127,-13.37,-10.1,-2.66
503909.234000,0.989,-0.279,-0.118,-7.42,-0.4,1.8
503909.281000,0.942,-0.23,-0.077,-12.57,2.99,-4.43
503909.328000,0.954,-0.291,-0.106,-3.54,0.46,7.2
503909.375000,0.906,-0.263,-0.085,-3.54,1.25,-2.29
503909.437000,0.95,-0.249,-0.136,5.52,-6.04,-1.37
503909.484000,0.965,-0.24,-0.132,4.97,-1.8,-1.71
503909.531000,0.938,-0.267,-0.124,6.23,-0.15,3.23
503909.578000,0.941,-0.271,-0.108,6.65,-8.09,2.75
503909.625000,0.975,-0.31,-0.224,17.94,-0.58,4.94
503909.671000,0.916,-0.22,-0.044,10.38,4.94,3.88
503909.718000,0.929,-0.245,-0.094,6.71,1.4,3.45
503909.765000,0.889,-0.281,-0.022,3.08,-3.45,6.9
503909.812000,0.939,-0.28,-0.01,4.21,-6.26,0.15
503909.859000,0.969,-0.281,0.052,8.91,-10.28,-2.62
503909.921000,0.991,-0.284,0.138,16.02,0.76,-11.11
503909.968000,0.964,-0.305,0.186,11.6,-11.6,-9.67
503910.015000,0.965,-0.177,0.28,21.09,12.05,-32.17
503910.062000,0.84,-0.205,0.307,-2.78,-26.67,-6.84
503910.109000,0.997,-0.225,0.13,-11.14,-2.08,-29.79
503910.156000,0.902,-0.256,-0.013,-20.72,-38.18,-4.27
503910.203000,0.996,-0.174,-0.076,-11.26,-11.84,-9.83
503910.250000,0.844,-0.139,-0.079,-43.37,-9.19,-24.35
503910.296000,0.909,-0.238,-0.339,-25.57,-35.22,-2.69
503910.359000,0.769,-0.051,-0.352,-35.0,-43.61,-26.76
503910.406000,0.778,-0.068,-0.568,-67.69,-76.14,-10.16
503910.453000,0.699,0.076,-0.609,-67.35,-60.15,2.69
503910.500000,0.627,0.13,-0.709,-70.47,-107.21,34.27
503910.546000,0.702,-0.123,-0.964,-60.7,-73.95,49.23
503910.593000,1.006,-0.422,-1.075,-57.92,-71.63,24.08
503910.640000,0.872,-0.28,-0.808,25.73,13.25,28.84
503910.687000,0.732,-0.051,-0.595,12.18,6.62,-8.91
503910.734000,0.722,-0.03,-0.483,14.62,-2.72,15.96
503910.781000,0.791,-0.047,-0.637,10.74,-3.36,1.1
503910.828000,0.768,-0.159,-0.57,5.65,-13.79,11.99
503910.875000,0.827,-0.055,-0.68,4.94,6.41,-10.5
503910.921000,0.814,-0.144,-0.51,6.32,-7.17,9.37
503910.968000,0.817,-0.112,-0.647,9.19,5.98,0.27
503911.015000,0.793,-0.14,-0.534,1.71,3.45,1.16
503911.062000,0.795,-0.154,-0.581,8.67,4.52,3.97
503911.109000,0.733,-0.18,-0.515,-2.72,0.52,-4.39
503911.156000,0.797,-0.118,-0.592,4.52,0.79,0.0
503911.203000,0.795,-0.154,-0.58,-4.67,-6.87,-0.27
503911.265000,0.768,-0.183,-0.52,1.89,2.17,6.71
503911.312000,0.77,-0.13,-0.604,-4.03,-2.99,-2.29
503911.359000,0.789,-0.193,-0.567,2.93,-4.24,9.28
503911.406000,0.789,-0.188,-0.571,0.64,-3.2,2.59
503911.453000,0.771,-0.183,-0.568,2.35,2.14,3.69
503911.500000,0.784,-0.177,-0.582,-0.89,-1.98,0.85
503911.546000,0.74,-0.181,-0.546,1.34,-0.82,5.46
503911.593000,0.778,-0.206,-0.604,0.34,-1.56,5.62
503911.640000,0.755,-0.178,-0.558,-2.38,-2.23,-5.13
503911.687000,0.765,-0.187,-0.554,0.09,-7.81,7.57
503911.734000,0.757,-0.201,-0.577,-3.78,0.21,-0.85
503911.781000,0.8,-0.184,-0.638,0.61,-7.39,1.8
503911.828000,0.754,-0.2,-0.552,0.27,-1.1,0.43
503911.875000,0.775,-0.182,-0.618,-1.92,0.15,-4.12
503911.921000,0.783,-0.194,-0.578,0.55,-1.25,1.28
503911.968000,0.778,-0.19,-0.59,2.84,0.31,1.04
503912.015000,0.77,-0.203,-0.603,-2.23,-0.21,-2.47
503912.062000,0.761,-0.168,-0.599,1.31,0.67,0.85
503912.109000,0.77,-0.216,-0.574,0.92,2.04,-0.37
503912.156000,0.758,-0.162,-0.597,2.14,0.92,0.7
503912.203000,0.766,-0.188,-0.606,-0.49,-2.87,1.34
503912.250000,0.763,-0.188,-0.603,2.9,2.41,-2.44
503912.296000,0.712,-0.165,-0.65,3.72,-0.95,1.4
503912.343000,0.771,-0.29,-0.812,17.64,-8.91,12.7
503912.390000,0.662,-0.22,-0.946,43.28,4.94,-7.02
503912.437000,0.774,-0.174,-1.171,96.01,51.58,-6.93
503912.484000,0.541,-0.182,-0.895,87.68,49.84,11.14
503912.531000,0.653,-0.208,-0.857,71.08,39.09,-41.26
503912.578000,0.747,-0.311,-0.649,69.92,49.9,-1.92
503912.625000,0.823,-0.188,-0.41,41.51,23.5,-27.59
503912.671000,0.836,-0.384,-0.182,25.27,20.72,17.91
503912.718000,0.892,-0.262,-0.173,26.06,17.79,-2.99
503912.765000,0.883,-0.24,-0.063,-5.25,24.69,-3.45
503912.812000,0.915,-0.376,-0.167,15.75,17.43,22.46
503912.859000,0.866,-0.349,-0.121,-21.33,38.39,17.73
503912.906000,0.951,-0.433,-0.092,3.42,35.52,12.7
503912.953000,0.859,-0.374,-0.001,-10.56,64.55,-2.08
503913.000000,0.923,-0.37,0.063,-1.13,49.9,-13.86
503913.046000,0.942,-0.346,0.047,-0.92,37.66,-21.79
503913.093000,0.875,-0.303,0.065,-20.78,40.25,-19.96
503913.140000,0.873,-0.307,0.01,-26.22,15.93,-25.39
503913.187000,0.966,-0.266,0.002,-18.13,6.62,1.31
503913.234000,0.947,-0.206,-0.006,-17.24,1.62,2.96
503913.281000,0.982,-0.327,-0.081,-26.58,19.14,-5.95
503913.328000,0.92,-0.313,-0.041,3.05,17.21,9.52
503913.375000,0.949,-0.292,-0.013,-9.46,11.93,-7.45
503913.421000,0.92,-0.292,-0.05,2.72,16.88,0.73
503913.468000,0.872,-0.244,0.028,6.96,-6.35,-0.89
503913.515000,0.926,-0.293,-0.057,-5.16,-19.87,8.79
503913.562000,0.98,-0.305,-0.164,-5.65,-12.33,8.97
503913.609000,0.933,-0.332,-0.102,5.22,10.8,2.93
503913.656000,0.968,-0.329,-0.104,10.62,-2.44,2.84
503913.703000,0.91,-0.308,-0.078,14.22,3.91,-1.1
503913.750000,0.932,-0.276,-0.073,1.28,-3.48,-8.0
503913.796000,0.915,-0.34,-0.111,14.28,-13.82,6.59
503913.843000,0.945,-0.272,-0.11,1.1,10.41,-11.93
503913.890000,0.969,-0.294,-0.135,11.14,-5.52,5.43
503913.953000,0.875,-0.307,-0.034,7.87,7.75,1.46
503914.000000,0.901,-0.29,-0.045,-5.25,0.98,1.4
503914.046000,0.87,-0.306,-0.01,3.3,-11.29,2.81
503914.093000,0.899,-0.316,-0.09,3.66,-11.99,4.33
503914.140000,0.985,-0.269,-0.101,6.1,-19.04,6.26
503914.187000,0.964,-0.359,-0.017,5.19,-3.42,1.83
503914.234000,0.966,-0.344,0.057,4.0,-2.93,-3.88
503914.281000,0.936,-0.229,0.299,2.47,9.55,-22.64
503914.328000,0.916,-0.295,0.297,-6.44,-23.74,-7.6
503914.375000,0.9,-0.293,0.363,0.31,-11.08,-25.12
503914.421000,0.791,-0.37,0.214,-28.38,-44.5,-15.14
503914.468000,0.855,-0.299,0.054,6.62,-35.98,-35.92
503914.515000,0.955,-0.341,-0.224,-41.08,-75.17,-22.74
503914.562000,1.056,-0.122,-0.156,-6.32,-18.59,-35.98
503914.609000,0.889,-0.112,-0.216,-19.38,-58.96,1.1
503914.656000,0.881,-0.074,-0.541,-33.11,-48.83,-0.12
503914.703000,0.881,-0.234,-0.729,-30.27,-76.69,17.18
503914.750000,0.643,0.014,-0.44,-58.35,-26.18,-17.21
503914.796000,0.606,-0.014,-0.656,-49.01,-79.96,-3.85
503914.843000,0.593,0.157,-0.813,-93.78,-54.84,-3.3
503914.890000,0.893,-0.008,-1.268,-23.22,-59.97,52.46
503914.937000,0.799,-0.18,-0.732,-24.87,12.42,3.45
503914.984000,0.689,-0.044,-0.63,6.59,-7.29,41.54
503915.031000,0.677,-0.099,-0.563,-19.78,-11.69,10.13
503915.078000,0.808,-0.174,-0.902,-2.99,-19.23,21.27
503915.125000,0.675,-0.12,-0.52,-1.46,2.78,1.65
503915.171000,0.756,-0.074,-0.775,1.31,-5.86,5.07
503915.234000,0.772,-0.083,-0.639,-12.12,-12.91,-3.45
503915.281000,0.722,-0.042,-0.562,10.01,6.2,10.59
503915.328000,0.753,-0.102,-0.676,-2.72,-1.89,1.53
503915.375000,0.767,-0.118,-0.609,10.32,6.59,9.37
503915.421000,0.796,-0.142,-0.723,12.54,-2.29,12.7
503915.468000,0.734,-0.16,-0.563,10.04,0.0,5.74
503915.515000,0.748,-0.165,-0.646,9.13,-0.79,13.25
503915.562000,0.774,-0.193,-0.616,5.43,5.19,4.24
503915.609000,0.752,-0.143,-0.598,9.46,-7.72,15.81
503915.656000,0.747,-0.208,-0.615,0.61,7.26,2.23
503915.703000,0.808,-0.127,-0.651,2.04,-0.79,4.76
503915.750000,0.704,-0.189,-0.54,5.4,3.3,22.06
503915.796000,0.731,-0.222,-0.623,-1.83,1.43,4.73
503915.843000,0.742,-0.191,-0.587,-4.21,0.76,1.25
503915.890000,0.735,-0.264,-0.596,-4.52,0.61,2.17
503915.937000,0.714,-0.212,-0.609,-1.4,0.4,-0.03
503915.984000,0.728,-0.21,-0.581,-4.52,-2.44,-1.31
503916.031000,0.752,-0.22,-0.595,2.56,-0.24,4.21
503916.078000,0.719,-0.202,-0.611,-0.06,-3.91,-3.39
503916.125000,0.787,-0.186,-0.625,0.09,3.3,-1.4
503916.171000,0.759,-0.214,-0.625,0.24,-6.96,-0.76
503916.218000,0.75,-0.198,-0.602,-0.7,0.92,-1.74
503916.265000,0.737,-0.218,-0.602,1.5,-2.72,1.89
503916.312000,0.711,-0.172,-0.618,0.61,1.04,0.21
503916.359000,0.759,-0.218,-0.616,0.12,-4.91,0.15
503916.406000,0.719,-0.166,-0.605,3.97,3.94,0.03
503916.453000,0.717,-0.192,-0.608,0.31,-2.69,2.9
503916.500000,0.731,-0.178,-0.601,-3.33,-0.92,-2.69
503916.546000,0.736,-0.198,-0.611,0.15,-4.27,9.09
503916.593000,0.702,-0.182,-0.619,-5.74,-4.12,1.59
503916.640000,0.731,-0.194,-0.637,5.25,-6.96,11.9
503916.687000,0.718,-0.205,-0.673,-1.5,-4.46,1.74
503916.734000,0.718,-0.234,-0.757,10.86,-5.1,4.46
503916.781000,0.747,-0.28,-0.901,30.7,-6.87,13.52
503916.828000,0.719,-0.293,-1.059,63.45,15.08,0.89
503916.875000,0.596,-0.317,-1.157,111.03,40.71,2.5
503916.921000,0.424,-0.176,-1.062,92.87,45.29,-36.01
503916.968000,0.546,-0.262,-0.92,120.46,51.88,-6.62
503917.015000,0.658,-0.196,-0.628,78.86,47.46,-35.8
503917.062000,0.692,-0.465,-0.249,54.69,52.16,-24.11
503917.109000,1.004,-0.247,-0.215,24.45,58.5,-57.01
503917.156000,0.877,-0.354,-0.005,-4.55,84.69,-31.22
503917.203000,0.918,-0.317,0.042,3.75,85.94,-24.08
503917.250000,1.031,-0.626,0.135,48.8,-16.11,59.91
503917.296000,1.002,-0.338,0.099,19.17,98.97,-41.69
503917.343000,0.883,0.072,0.526,25.36,124.61,-59.36
503917.390000,0.655,0.108,0.515,-71.41,44.89,-11.35
503917.437000,0.73,-0.184,0.16,-91.04,-7.42,3.14
503917.484000,0.757,-0.335,0.16,-71.87,9.58,-0.82
503917.531000,0.935,-0.354,0.107,-43.31,-19.96,7.35
503917.578000,1.0,-0.344,0.116,-43.03,-2.47,-1.74
503917.625000,1.038,-0.361,-0.071,-18.13,-12.36,9.67
503917.671000,0.984,-0.315,0.071,-29.05,14.13,-25.51
503917.718000,1.001,-0.292,-0.042,1.43,-13.92,2.08
503917.765000,0.965,-0.237,0.052,-24.66,-2.32,-25.76
503917.812000,0.976,-0.27,-0.054,2.23,-24.93,7.63
503917.859000,0.968,-0.194,-0.082,-0.85,-10.74,-16.42
503917.906000,0.971,-0.272,-0.105,8.82,-2.08,-1.92
503917.953000,0.96,-0.229,-0.118,13.4,-0.31,0.46
503918.000000,0.905,-0.218,-0.013,8.45,0.52,-2.35
503918.046000,0.948,-0.23,-0.093,15.11,-9.37,3.51
503918.093000,0.928,-0.262,-0.12,9.74,-7.32,4.21
503918.156000,0.96,-0.255,-0.134,5.8,-3.97,0.34
503918.203000,0.935,-0.246,-0.078,4.46,-2.69,3.17
503918.250000,0.939,-0.248,-0.087,-0.61,-5.62,3.97
503918.296000,0.938,-0.283,-0.117,7.05,-7.51,3.2
503918.343000,0.945,-0.279,-0.13,3.66,-7.97,2.35
503918.390000,0.942,-0.269,-0.14,4.24,-5.95,3.94
503918.437000,0.977,-0.289,-0.18,5.8,-1.37,2.99
503918.484000,0.962,-0.284,-0.143,1.13,7.93,-4.18
503918.531000,0.975,-0.274,-0.148,9.28,7.69,-0.24
503918.578000,0.906,-0.25,-0.04,0.09,3.94,-1.53
503918.625000,0.946,-0.279,-0.115,-1.8,0.27,0.31
503918.671000,0.91,-0.295,-0.089,-1.1,0.64,-1.89
503918.734000,0.935,-0.26,-0.1,3.17,2.44,0.73
503918.796000,0.959,-0.234,-0.107,-0.95,-3.75,0.03
503918.843000,0.935,-0.263,-0.079,-2.17,-0.34,-0.82
503918.890000,0.946,-0.234,-0.105,-3.2,-1.59,1.31
503918.937000,0.95,-0.29,-0.122,-0.06,-5.92,2.53
503919.000000,0.933,-0.292,-0.111,2.08,1.71,-1.62
503919.046000,0.947,-0.256,-0.1,2.5,-4.27,-0.79
503919.093000,0.937,-0.275,-0.089,2.69,4.73,-2.41
503919.140000,0.937,-0.272,-0.102,5.77,-4.79,5.49
503919.187000,0.924,-0.282,-0.089,4.97,1.77,-1.43
503919.234000,0.95,-0.261,-0.088,9.4,-2.99,0.76
503919.281000,0.96,-0.256,-0.075,8.0,-5.83,0.7
503919.328000,0.969,-0.301,-0.023,12.09,-3.11,-1.16
503919.375000,0.967,-0.269,0.025,15.35,0.67,-6.38
503919.421000,0.981,-0.325,0.048,14.95,-9.7,-3.91
503919.468000,1.007,-0.248,0.173,27.31,12.51,-21.94
503919.515000,0.87,-0.216,0.246,3.91,-26.0,0.43
503919.562000,0.991,-0.239,0.105,28.96,-11.9,-8.85
503919.609000,0.83,-0.296,-0.022,-22.52,-35.95,1.95
503919.656000,1.036,-0.449,-0.241,51.91,-35.49,9.06
503919.703000,0.87,-0.057,0.137,-1.95,28.69,-44.07
503919.750000,0.893,-0.34,-0.223,7.29,-78.86,42.73
503919.796000,0.994,-0.157,-0.245,0.27,2.2,-9.8
503919.843000,0.699,-0.126,-0.241,-25.91,-49.5,21.45
503919.890000,1.027,-0.487,-0.89,10.74,-23.26,21.61
503919.937000,0.813,-0.022,-0.116,-17.64,3.78,-36.56
503919.984000,0.948,-0.104,-0.011,-21.58,-37.84,-3.05
503920.031000,0.909,-0.083,-0.063,-47.36,-29.79,-2.87
503920.078000,0.767,-0.255,-0.327,-53.1,-47.03,33.48
503920.125000,0.787,-0.237,-0.579,-58.84,-37.39,9.22
503920.171000,0.703,-0.131,-0.658,-54.9,-58.35,13.46
503920.218000,0.892,-0.279,-0.881,-41.38,-60.37,26.03
503920.265000,0.834,-0.371,-0.7,-41.02,-43.15,31.8
503920.312000,0.805,-0.24,-0.688,-11.38,6.68,-3.97
503920.359000,0.77,-0.274,-0.581,-8.88,-12.39,8.39
503920.406000,0.774,-0.156,-0.478,1.95,2.53,-3.88
503920.453000,0.81,-0.17,-0.538,-11.87,-12.48,-1.53
503920.500000,0.787,-0.237,-0.495,4.73,-7.66,19.17
503920.546000,0.779,-0.162,-0.571,-12.18,-12.76,-5.25
503920.593000,0.812,-0.237,-0.508,5.16,-1.98,14.04
503920.640000,0.781,-0.146,-0.606,-6.04,-4.61,-3.97
503920.687000,0.778,-0.25,-0.47,3.02,-1.22,12.57
503920.734000,0.772,-0.169,-0.562,-5.83,-2.29,-0.37
503920.781000,0.776,-0.283,-0.554,-1.74,-9.43,7.2
503920.828000,0.784,-0.2,-0.547,4.43,2.08,1.77
503920.875000,0.748,-0.223,-0.51,-0.55,-4.61,5.01
503920.921000,0.787,-0.172,-0.557,-2.93,-2.81,-0.49
503920.968000,0.779,-0.258,-0.544,-1.34,-11.93,11.72
503921.015000,0.773,-0.221,-0.586,-5.77,-0.4,-5.19
503921.062000,0.784,-0.246,-0.557,-1.16,-7.29,4.55
503921.109000,0.794,-0.262,-0.568,8.7,2.96,2.72
503921.156000,0.765,-0.226,-0.548,0.0,-4.12,-0.06
503921.203000,0.793,-0.267,-0.562,5.13,-0.4,2.23
503921.250000,0.772,-0.221,-0.572,-2.53,-4.27,-0.92
503921.296000,0.761,-0.249,-0.577,2.29,2.14,2.99
503921.343000,0.768,-0.234,-0.562,-1.01,-2.81,0.0
503921.390000,0.767,-0.251,-0.6,3.17,-2.04,5.34
503921.437000,0.732,-0.231,-0.576,-2.04,-3.17,-4.15
503921.484000,0.763,-0.238,-0.613,1.53,2.59,1.07
503921.531000,0.804,-0.242,-0.578,1.1,1.89,-2.56
503921.593000,0.778,-0.22,-0.587,3.81,5.01,1.56
503921.640000,0.798,-0.244,-0.578,2.53,2.32,4.88
503921.687000,0.763,-0.243,-0.563,4.97,9.7,1.89
503921.734000,0.767,-0.251,-0.537,3.78,8.42,-1.92
503921.781000,0.749,-0.269,-0.596,10.04,3.72,9.19
503921.828000,0.775,-0.292,-0.646,7.66,5.65,-8.06
503921.875000,0.724,-0.321,-0.855,28.08,0.18,4.79
503921.921000,0.687,-0.287,-0.999,63.11,32.72,-11.72
503921.968000,0.602,-0.122,-1.016,65.98,35.28,-28.14
503922.015000,0.585,-0.37,-0.814,109.41,42.91,16.05
503922.062000,0.635,-0.159,-0.695,58.47,34.94,-52.13
503922.109000,0.721,-0.465,-0.255,63.75,26.06,18.49
503922.156000,0.823,-0.239,-0.389,20.51,4.46,-24.63
503922.203000,0.755,-0.375,-0.17,6.41,30.4,4.55
503922.250000,0.949,-0.409,-0.111,18.71,35.4,16.79
503922.296000,0.932,-0.32,0.021,-38.82,62.87,-7.57
503922.343000,1.097,-0.418,0.139,-25.42,37.11,14.01
503922.390000,0.919,-0.325,0.254,-58.69,62.53,2.59
503922.437000,1.054,-0.244,0.187,-50.08,27.83,-18.16
503922.484000,0.941,-0.178,0.149,-73.76,40.99,-17.15
503922.531000,0.848,-0.281,0.038,-67.51,-3.57,-7.6
503922.578000,0.81,-0.324,-0.135,-46.45,-19.93,0.03
503922.625000,0.928,-0.237,-0.135,-29.91,-14.19,-16.14
503922.671000,0.948,-0.163,-0.195,15.96,-11.51,9.34
503922.718000,0.985,-0.242,-0.129,30.55,-4.03,4.64
503922.765000,1.01,-0.31,-0.065,52.31,7.54,12.91
503922.812000,0.996,-0.482,-0.258,50.39,-4.0,12.6
503922.859000,0.861,-0.521,-0.261,32.62,6.35,-17.21
503922.906000,0.833,-0.474,-0.231,19.96,6.23,-23.26
503922.953000,0.769,-0.4,-0.264,-4.88,-1.19,-6.71
503923.000000,0.738,-0.377,-0.275,-7.63,0.98,-5.8
503923.046000,0.883,-0.365,-0.171,-15.02,-7.81,19.35
503923.093000,0.978,-0.399,-0.245,5.83,-12.15,24.14
503923.140000,1.021,-0.287,-0.119,-13.09,6.44,-7.51
503923.187000,1.046,-0.348,-0.284,-3.63,0.46,-5.01
503923.234000,0.973,-0.324,-0.19,-17.49,24.05,-22.49
503923.281000,0.874,-0.388,-0.188,5.74,14.8,-2.26
503923.328000,0.85,-0.326,-0.185,9.95,14.31,-17.37
503923.375000,0.851,-0.303,-0.202,17.85,23.62,-27.1
503923.421000,0.914,-0.077,0.009,6.16,24.87,-25.97
503923.468000,0.874,-0.149,-0.054,-3.23,0.95,5.74
503923.515000,0.995,-0.224,-0.142,-30.82,0.76,4.15
503923.562000,0.988,-0.306,-0.089,-8.48,-9.86,22.46
503923.609000,0.935,-0.286,-0.068,-37.11,-20.36,-1.34
503923.656000,0.979,-0.342,-0.15,-6.47,-20.05,6.41
503923.703000,0.901,-0.299,-0.139,-15.26,-19.35,-7.29
503923.750000,0.994,-0.293,-0.188,15.66,4.06,-14.86
503923.796000,0.899,-0.281,-0.049,10.77,-2.66,-6.56
503923.843000,0.971,-0.305,-0.013,18.8,-5.04,-10.16
503923.890000,0.948,-0.292,0.071,22.58,3.97,-16.69
503923.937000,0.995,-0.246,0.113,37.81,0.06,-28.14
503923.984000,0.968,-0.039,0.293,24.23,38.48,-55.27
503924.031000,0.882,-0.21,0.247,2.66,-14.92,-16.45
503924.078000,1.03,-0.041,0.148,-4.24,17.09,-51.61
503924.125000,0.9,-0.166,0.155,-34.03,-24.57,-14.77
503924.187000,0.962,0.017,-0.04,-32.2,34.06,-26.22
503924.234000,0.85,-0.156,-0.47,7.26,-58.6,53.01
503924.281000,0.649,-0.151,-0.321,-78.65,-51.85,-20.69
503924.328000,0.88,-0.217,-0.929,-30.76,-97.26,38.03
503924.375000,0.757,0.067,-0.521,-67.17,-51.06,-41.66
503924.421000,0.739,0.032,-0.721,-8.27,-71.32,46.85
503924.468000,0.804,0.064,-0.755,-45.08,-41.47,24.78
503924.515000,0.697,-0.131,-0.664,-34.58,-45.23,62.78
503924.562000,0.82,-0.335,-0.781,-20.63,-24.6,32.07
503924.609000,0.768,-0.248,-0.678,-14.1,-15.44,8.33
503924.656000,0.783,-0.167,-0.539,14.19,2.9,-9.77
503924.718000,0.758,-0.156,-0.587,-3.33,-21.24,-1.89
503924.765000,0.804,-0.146,-0.498,5.74,-6.23,-2.38
503924.812000,0.845,-0.134,-0.607,3.05,-17.52,-1.4
503924.859000,0.792,-0.149,-0.586,2.69,-7.26,5.89
503924.906000,0.866,-0.129,-0.583,-1.95,-8.48,-3.11
503924.953000,0.769,-0.144,-0.588,1.53,1.74,10.01
503925.000000,0.782,-0.138,-0.59,-5.22,-0.64,-5.65
503925.046000,0.783,-0.193,-0.529,1.59,-0.09,6.16
503925.093000,0.751,-0.161,-0.543,-0.64,0.18,-0.98
503925.140000,0.776,-0.178,-0.549,-0.43,2.9,3.36
503925.187000,0.741,-0.177,-0.539,3.33,-2.14,7.51
503925.234000,0.776,-0.167,-0.574,-3.27,0.58,-0.55
503925.281000,0.804,-0.181,-0.565,2.69,-4.43,7.75
503925.328000,0.772,-0.198,-0.538,3.02,1.07,7.69
503925.375000,0.817,-0.19,-0.596,-2.38,-2.14,-0.82
503925.421000,0.8,-0.188,-0.575,5.89,-0.98,7.32
503925.468000,0.789,-0.247,-0.577,3.39,2.32,8.06
503925.515000,0.783,-0.209,-0.561,5.4,3.69,3.63
503925.562000,0.769,-0.236,-0.548,0.79,-1.4,4.39
503925.609000,0.75,-0.219,-0.51,3.69,4.58,2.04
503925.656000,0.769,-0.223,-0.541,-2.96,-3.45,-2.17
503925.703000,0.768,-0.202,-0.542,3.05,1.65,2.81
503925.750000,0.77,-0.216,-0.566,-3.48,-7.51,0.89
503925.796000,0.772,-0.207,-0.547,1.37,1.92,3.27
503925.843000,0.82,-0.216,-0.596,-1.53,-2.75,-1.43
503925.890000,0.781,-0.223,-0.55,1.59,-3.72,6.87
503925.937000,0.793,-0.224,-0.6,-4.03,-2.5,-2.96
503925.984000,0.792,-0.226,-0.551,5.22,1.59,5.4
503926.031000,0.788,-0.228,-0.587,-1.13,0.55,-2.38
503926.078000,0.78,-0.231,-0.57,1.83,1.22,1.98
503926.125000,0.772,-0.222,-0.559,-0.64,2.35,-2.2
503926.171000,0.767,-0.238,-0.58,4.58,1.22,4.82
503926.218000,0.759,-0.244,-0.54,3.54,1.68,-0.89
503926.265000,0.739,-0.228,-0.581,3.39,-2.35,2.93
503926.312000,0.771,-0.242,-0.528,1.89,1.1,-3.23
503926.359000,0.776,-0.219,-0.576,7.87,-0.09,3.33
503926.406000,0.737,-0.247,-0.589,2.9,-6.1,5.1
503926.468000,0.782,-0.347,-0.682,23.47,8.79,2.75
503926.515000,0.702,-0.246,-0.69,23.93,2.41,-14.1
503926.578000,0.806,-0.18,-0.744,48.95,11.72,-8.48
503926.625000,0.778,-0.204,-0.771,63.78,22.06,2.47
503926.671000,0.671,-0.166,-0.728,54.93,21.49,-4.61
503926.718000,0.642,-0.277,-0.805,60.3,21.09,0.43
503926.765000,0.527,-0.403,-0.726,94.85,33.51,27.07
503926.812000,0.633,-0.378,-0.649,33.75,15.23,-31.62
503926.859000,0.602,-0.517,-0.456,47.15,28.11,1.8
503926.906000,0.967,-0.4,-0.208,12.42,3.6,-27.92
503926.953000,0.931,-0.445,-0.11,-5.83,50.08,-18.56
503927.000000,1.008,-0.428,0.21,9.06,27.38,-3.75
503927.046000,1.007,-0.299,-0.114,-49.99,27.65,-9.46
503927.093000,0.938,-0.378,0.063,-16.72,23.53,20.6
503927.140000,0.92,-0.39,-0.126,-54.84,22.03,11.29
503927.187000,0.967,-0.43,-0.122,-10.83,50.78,2.35
503927.234000,0.948,-0.285,-0.11,-37.57,45.17,-24.26
503927.281000,0.889,-0.31,-0.028,3.11,51.18,-19.87
503927.328000,0.962,-0.206,-0.019,-16.17,39.19,-49.53
503927.375000,0.915,-0.18,0.085,9.86,33.6,-17.82
503927.421000,0.881,-0.291,-0.037,22.22,-19.07,-9.8
503927.468000,0.947,-0.139,0.13,-1.04,16.36,-43.03
503927.515000,1.009,-0.176,0.034,8.67,-11.81,2.04
503927.578000,0.918,-0.385,-0.078,-3.85,11.57,5.74
503927.625000,0.923,-0.267,-0.038,8.64,10.56,2.9
503927.671000,0.937,-0.24,-0.024,-1.83,4.58,4.12
503927.718000,0.945,-0.348,-0.033,3.2,-4.94,10.5
503927.765000,0.998,-0.288,-0.076,-1.74,-0.03,-0.43
503927.812000,0.987,-0.307,-0.081,4.82,4.46,-1.5
503927.859000,0.901,-0.241,0.078,2.9,7.05,-1.34
503927.906000,0.922,-0.252,0.128,-16.33,-13.73,8.21
503927.968000,0.966,-0.342,0.162,-13.58,-14.65,7.02
503928.015000,0.978,-0.304,0.24,-21.88,-18.71,-19.17
503928.062000,0.95,-0.252,0.292,-0.21,0.64,-26.98
503928.109000,0.906,-0.308,0.236,17.94,-20.14,-6.32
503928.171000,0.907,-0.282,0.155,10.04,-19.93,-31.04
503928.218000,0.914,-0.101,0.085,-2.87,-17.3,-36.62
503928.265000,0.837,-0.133,0.073,-4.7,-35.58,-12.79
503928.312000,0.892,-0.344,-0.52,-63.3,-93.97,11.14
503928.359000,0.999,-0.063,-0.207,-8.12,8.0,-48.71
503928.406000,0.747,0.029,-0.3,-51.88,-68.7,11.69
503928.453000,0.899,-0.119,-0.677,-20.02,-65.37,25.12
503928.500000,0.69,-0.139,-0.687,-57.65,-63.63,-2.66
503928.546000,0.817,0.016,-0.572,-36.47,-29.11,-37.35
503928.593000,0.616,0.309,-0.69,-52.19,-80.14,-12.91
503928.640000,0.827,0.057,-0.99,-69.8,-71.02,36.1
503928.687000,0.7,-0.081,-0.858,-25.94,-54.32,59.45
503928.734000,0.86,-0.131,-0.884,-18.34,-13.89,26.55
503928.781000,0.753,-0.145,-0.641,7.93,16.66,17.58
503928.828000,0.696,0.028,-0.618,6.1,9.49,-24.66
503928.875000,0.694,-0.009,-0.554,4.36,-14.86,30.79
503928.921000,0.815,-0.119,-0.643,10.32,7.72,4.82
503928.968000,0.802,-0.078,-0.626,1.04,-20.39,12.7
503929.015000,0.778,-0.123,-0.622,8.79,3.88,10.01
503929.062000,0.802,-0.139,-0.627,0.43,-7.78,1.22
503929.109000,0.759,-0.118,-0.605,9.89,4.3,7.63
503929.156000,0.776,-0.168,-0.603,-0.95,-2.56,-1.22
503929.203000,0.783,-0.12,-0.567,10.5,7.81,1.28
503929.250000,0.745,-0.166,-0.603,5.43,-8.88,11.84
503929.296000,0.802,-0.211,-0.591,10.96,5.68,5.1
503929.343000,0.758,-0.118,-0.605,0.58,-0.24,-4.24
503929.390000,0.801,-0.193,-0.594,7.72,-0.95,8.55
503929.437000,0.754,-0.177,-0.591,5.62,-1.86,5.65
503929.484000,0.75,-0.198,-0.553,-1.98,4.24,-3.17
503929.531000,0.798,-0.173,-0.607,11.17,0.09,11.81
503929.578000,0.755,-0.219,-0.562,1.5,-0.61,-0.79
503929.625000,0.753,-0.157,-0.583,3.51,3.94,0.4
503929.671000,0.783,-0.239,-0.551,5.95,-3.72,9.31
503929.718000,0.741,-0.152,-0.605,0.79,3.3,-4.52
503929.765000,0.768,-0.23,-0.568,9.52,1.07,9.92
503929.812000,0.751,-0.163,-0.599,4.79,-1.34,-3.51
503929.859000,0.713,-0.182,-0.568,4.36,0.15,3.69
503929.906000,0.764,-0.162,-0.607,6.26,-3.6,6.16
503929.953000,0.756,-0.195,-0.574,4.58,-3.75,10.25
503930.000000,0.769,-0.191,-0.623,-2.2,-3.88,4.12
503930.046000,0.815,-0.214,-0.595,-2.84,-0.7,4.12
503930.093000,0.738,-0.216,-0.597,-3.6,-2.66,8.0
503930.140000,0.76,-0.238,-0.611,0.49,2.38,1.53
503930.187000,0.747,-0.266,-0.586,6.1,2.59,7.23
503930.234000,0.758,-0.261,-0.607,11.26,7.66,4.49
503930.281000,0.755,-0.266,-0.559,5.04,4.79,-2.2
503930.328000,0.761,-0.228,-0.58,6.04,7.35,-0.82
503930.375000,0.746,-0.281,-0.555,4.67,4.97,2.5
503930.421000,0.767,-0.254,-0.61,6.2,3.11,-2.47
503930.468000,0.716,-0.285,-0.521,14.53,5.89,5.07
503930.515000,0.723,-0.23,-0.583,8.97,7.45,-9.03
503930.578000,0.707,-0.293,-0.585,23.22,2.9,5.25
503930.625000,0.7,-0.245,-0.693,30.24,6.04,-8.94
503930.671000,0.573,-0.296,-0.726,65.58,17.43,23.41
503930.718000,0.553,-0.378,-0.703,79.93,11.96,3.78
503930.765000,0.442,-0.312,-0.716,96.65,25.12,37.14
503930.812000,0.532,-0.397,-0.52,98.24,-6.29,27.07
503930.859000,0.71,-0.48,-0.426,65.16,5.13,47.82
503930.906000,0.71,-0.527,-0.26,53.77,-16.48,33.97
503930.968000,0.947,-0.54,-0.218,49.96,-20.14,52.95
503931.015000,0.907,-0.702,-0.034,12.7,-17.24,53.65
503931.062000,0.832,-0.62,-0.245,-23.32,11.44,16.72
503931.109000,0.897,-0.753,-0.242,9.28,2.96,54.96
503931.156000,0.892,-0.732,-0.28,0.7,13.31,32.14
503931.203000,0.754,-0.865,-0.18,8.73,26.89,26.28
503931.250000,0.796,-0.752,-0.194,19.5,13.4,-9.34
503931.296000,0.757,-0.682,-0.093,-0.4,13.98,-37.63
503931.343000,0.798,-0.683,-0.126,20.33,2.41,-26.4
503931.390000,0.862,-0.811,-0.184,0.92,7.32,-38.48
503931.437000,0.767,-0.776,-0.108,32.35,15.66,-37.6
503931.484000,0.737,-0.572,-0.016,41.66,29.57,-57.8
503931.531000,0.651,-0.444,0.072,25.91,12.54,-41.75
503931.578000,0.626,-0.611,-0.116,5.8,-14.13,-24.93
503931.625000,0.683,-0.606,-0.206,-0.03,-15.59,-15.08
503931.671000,0.614,-0.61,-0.204,-14.4,5.89,-26.67
503931.718000,0.791,-0.717,-0.155,1.74,-10.1,13.0
503931.765000,0.825,-0.391,-0.176,-23.19,21.58,-43.64
503931.828000,0.954,-0.403,0.076,-11.6,7.48,-4.52
503931.875000,0.811,-0.283,-0.024,-92.41,-2.69,-29.63
503931.921000,0.726,-0.262,-0.261,-64.64,-10.71,-19.1
503931.968000,0.614,-0.195,-0.285,-108.49,-36.32,-25.54
503932.015000,0.385,0.095,-0.532,-144.05,-62.84,-36.93
503932.078000,0.418,0.027,-1.395,-197.39,-138.71,-6.99
503932.125000,0.82,-0.632,-1.186,-113.86,-79.32,48.34
503932.171000,0.887,-0.52,-0.982,64.61,9.86,53.47
503932.218000,0.685,-0.097,-0.567,24.69,24.48,-43.89
503932.265000,0.719,0.064,-0.682,8.76,-5.55,-18.25
503932.312000,0.737,-0.064,-0.674,19.75,-2.17,-1.83
503932.359000,0.66,-0.061,-0.818,18.86,-10.22,5.68
503932.406000,0.709,-0.08,-0.803,16.6,-3.85,-4.91
503932.453000,0.755,-0.034,-0.822,13.76,0.95,-13.95
503932.500000,0.725,-0.131,-0.7,10.62,3.08,-2.66
503932.546000,0.744,-0.188,-0.71,19.53,8.94,4.88
503932.593000,0.664,-0.272,-0.509,29.24,21.61,3.2
503932.640000,0.681,-0.286,-0.494,24.38,18.92,-5.62
503932.687000,0.68,-0.305,-0.478,27.59,10.53,-3.57
503932.734000,0.683,-0.268,-0.61,9.16,10.38,-11.63
503932.781000,0.663,-0.318,-0.642,8.06,1.95,13.18
503932.828000,0.692,-0.325,-0.733,-3.14,1.13,12.57
503932.875000,0.72,-0.337,-0.633,-6.07,9.43,5.71
503932.921000,0.665,-0.314,-0.535,5.04,14.59,12.33
503932.968000,0.752,-0.287,-0.512,-12.97,1.07,-4.3
503933.015000,0.784,-0.238,-0.614,-27.89,-5.92,-9.43
503933.062000,0.717,-0.362,-0.624,-16.48,3.3,23.07
503933.109000,0.73,-0.331,-0.614,-18.56,8.67,-0.95
503933.156000,0.692,-0.237,-0.569,-14.86,13.49,2.62
503933.203000,0.744,-0.24,-0.678,-19.14,2.66,9.31
503933.250000,0.725,-0.255,-0.594,-17.52,20.94,3.11
503933.296000,0.721,-0.235,-0.585,-13.86,10.93,6.38
503933.343000,0.749,-0.204,-0.546,-22.86,12.91,-8.39
503933.390000,0.751,-0.268,-0.531,-18.25,-0.64,15.84
503933.437000,0.801,-0.324,-0.559,-11.93,5.22,9.16
503933.484000,0.83,-0.373,-0.632,5.1,-6.41,12.09
503933.531000,0.779,-0.401,-0.546,28.41,9.74,-3.88
503933.578000,0.908,-0.228,-0.571,17.21,7.42,-38.03
503933.625000,0.722,-0.108,-0.511,29.24,-4.55,9.58
503933.671000,0.748,-0.177,-0.543,24.87,8.42,-8.85
503933.718000,0.769,-0.117,-0.594,24.51,5.89,-12.48
503933.765000,0.674,-0.157,-0.503,23.44,7.54,3.94
503933.812000,0.776,-0.23,-0.576,23.68,6.47,-3.66
503933.859000,0.732,-0.288,-0.578,20.29,3.97,-1.53
503933.906000,0.79,-0.353,-0.569,30.49,9.09,5.52
503933.953000,0.823,-0.3,-0.461,29.36,16.75,-9.28
503934.000000,0.793,-0.301,-0.426,22.22,11.99,-1.89
503934.062000,0.821,-0.309,-0.449,9.31,5.58,-5.31
503934.109000,0.795,-0.363,-0.44,7.9,-0.52,2.81
503934.156000,0.793,-0.325,-0.422,3.23,5.74,-8.45
503934.203000,0.803,-0.348,-0.402,2.72,-4.03,1.37
503934.250000,0.842,-0.345,-0.471,0.55,3.42,-4.3
503934.296000,0.821,-0.343,-0.423,0.73,-2.2,6.87
503934.343000,0.837,-0.315,-0.423,-6.56,0.98,-0.85
503934.390000,0.815,-0.349,-0.444,-4.73,-3.45,9.74
503934.437000,0.809,-0.359,-0.451,-10.04,-1.8,1.8
503934.484000,0.783,-0.338,-0.462,-10.19,-3.51,0.7
503934.531000,0.808,-0.406,-0.479,1.83,0.31,5.19
503934.578000,0.781,-0.316,-0.426,-2.17,1.56,-8.12
503934.625000,0.808,-0.332,-0.44,6.1,-0.61,2.72
503934.671000,0.768,-0.313,-0.412,-1.28,-3.6,-3.81
503934.718000,0.781,-0.306,-0.545,-3.39,-8.3,-1.07
503934.765000,0.762,-0.318,-0.477,-1.46,-4.82,-0.43
503934.812000,0.802,-0.322,-0.569,-2.62,-17.0,-1.59
503934.859000,0.822,-0.29,-0.58,3.2,4.55,-6.35
503934.906000,0.792,-0.307,-0.492,2.81,-8.24,3.57
503934.953000,0.839,-0.33,-0.477,5.43,10.22,-4.61
503935.000000,0.73,-0.305,-0.448,3.11,-6.07,11.81
503935.062000,0.72,-0.332,-0.488,-3.11,-2.62,2.01
503935.109000,0.775,-0.296,-0.524,-3.85,-6.96,1.4
503935.156000,0.803,-0.258,-0.565,-1.31,-0.7,1.83
503935.203000,0.801,-0.292,-0.55,-5.34,-5.71,0.61
503935.250000,0.772,-0.305,-0.643,-4.12,7.17,-2.96
503935.296000,0.759,-0.443,-0.804,10.25,2.62,3.17
503935.343000,0.731,-0.451,-0.788,46.91,30.79,-26.18
503935.390000,0.524,-0.454,-0.895,50.94,4.76,-4.09
503935.437000,0.691,-0.416,-1.187,94.82,22.49,-0.09
503935.484000,0.51,-0.277,-0.618,56.89,24.35,-2.87
503935.531000,0.76,-0.286,-0.488,51.27,40.01,-9.31
503935.578000,0.67,-0.433,-0.172,31.19,58.05,-13.31
503935.625000,0.84,-0.349,0.026,13.98,86.73,-1.31
503935.671000,0.951,-0.42,0.137,29.27,94.24,10.38
503935.718000,1.011,-0.153,0.135,62.53,118.99,-28.17
503935.765000,0.869,-0.047,0.678,-23.16,109.81,16.54
503935.812000,0.944,-0.213,0.392,-66.16,34.64,51.58
503935.859000,0.868,-0.523,0.344,-100.77,3.2,38.15
503935.906000,1.026,-0.817,0.024,-50.45,5.16,15.81
503935.953000,0.855,-0.628,-0.01,-27.28,17.82,-23.35
503936.000000,0.775,-0.403,0.121,0.85,20.91,-26.95
503936.046000,0.839,-0.335,0.048,-3.81,2.32,-4.85
503936.093000,0.812,-0.395,0.083,-3.51,-3.51,4.82
503936.140000,0.889,-0.492,0.167,5.4,-18.71,15.38
503936.187000,0.967,-0.528,0.207,18.83,-20.08,8.03
503936.234000,1.046,-0.388,0.442,41.32,0.79,-24.38
503936.281000,0.916,-0.326,0.64,42.05,5.98,-30.15
503936.328000,0.845,-0.275,0.678,46.94,-3.81,-26.12
503936.375000,0.843,-0.471,0.467,-7.69,-66.26,10.9
503936.421000,0.778,-0.317,0.233,22.68,-18.46,-16.66
503936.468000,0.744,-0.526,-0.17,-36.5,-103.92,44.71
503936.515000,0.713,-0.475,-0.227,-14.25,-53.87,11.69
503936.562000,0.602,-0.262,-0.328,-84.84,-81.61,-26.83
503936.609000,0.657,-0.161,-0.702,-87.8,-101.72,-48.52
503936.656000,0.639,0.006,-0.885,-134.04,-114.44,-44.95
503936.703000,0.695,-0.09,-1.127,-117.5,-92.59,-9.58
503936.750000,0.777,-0.282,-1.189,-70.28,-63.6,23.41
503936.812000,0.712,-0.233,-0.932,1.37,2.23,22.83
503936.859000,0.648,-0.314,-0.764,19.71,-5.25,38.67
503936.906000,0.643,-0.168,-0.633,5.19,-12.39,-5.19
503936.968000,0.764,-0.114,-0.695,3.2,6.71,-8.21
503937.015000,0.755,-0.193,-0.692,12.67,-5.86,19.44
503937.062000,0.775,-0.215,-0.624,8.18,9.89,-10.16
503937.109000,0.754,-0.254,-0.559,15.63,22.28,-4.76
503937.156000,0.73,-0.223,-0.561,20.97,21.55,-12.51
503937.203000,0.725,-0.304,-0.551,26.09,22.92,-1.16
503937.250000,0.797,-0.291,-0.565,33.75,25.45,4.73
503937.296000,0.799,-0.294,-0.556,9.77,10.71,-11.87
503937.343000,0.755,-0.216,-0.453,12.91,22.49,-11.11
503937.390000,0.808,-0.318,-0.482,1.56,5.89,1.53
503937.437000,0.745,-0.323,-0.392,1.13,14.13,5.46
503937.484000,0.786,-0.288,-0.522,-9.19,-4.36,-10.71
503937.531000,0.762,-0.352,-0.41,-3.02,6.2,2.53
503937.578000,0.776,-0.293,-0.486,-11.29,1.65,-11.9
503937.625000,0.738,-0.279,-0.424,-16.24,-7.35,-10.01
503937.671000,0.855,-0.259,-0.549,-10.22,-8.91,-10.86
503937.718000,0.807,-0.221,-0.467,-11.26,-4.03,-5.92
503937.765000,0.861,-0.275,-0.524,2.41,3.6,-0.46
503937.812000,0.876,-0.281,-0.565,8.15,-2.99,5.46
503937.859000,0.851,-0.27,-0.529,-3.85,1.68,-6.87
503937.906000,0.8,-0.256,-0.473,8.79,12.12,3.66
503937.953000,0.841,-0.22,-0.578,4.49,5.49,-10.1
503938.000000,0.733,-0.223,-0.374,4.12,-4.82,13.06
503938.046000,0.768,-0.212,-0.506,-7.14,4.64,-5.16
503938.093000,0.781,-0.248,-0.525,-9.77,-11.6,2.01
503938.140000,0.813,-0.227,-0.54,-1.22,0.06,1.1
503938.187000,0.791,-0.276,-0.518,-2.35,-2.99,2.08
503938.234000,0.755,-0.207,-0.53,3.27,3.23,-4.21
503938.281000,0.805,-0.229,-0.57,-1.31,-8.18,3.51
503938.328000,0.791,-0.242,-0.606,8.82,4.27,6.35
503938.375000,0.769,-0.377,-0.794,19.53,13.76,-5.1
503938.421000,0.697,-0.321,-0.741,18.68,12.79,-17.79
503938.468000,0.75,-0.333,-0.857,63.88,41.02,-24.45
503938.515000,0.77,-0.144,-0.7,37.26,21.82,-55.6
503938.562000,0.872,-0.338,-0.796,76.17,31.28,10.28
503938.609000,0.856,-0.258,-0.634,31.98,35.16,-37.87
503938.656000,0.735,-0.333,-0.561,45.87,15.08,17.7
503938.703000,0.861,-0.138,-0.538,17.49,30.82,-21.09
503938.750000,0.714,-0.279,-0.244,15.56,31.37,4.39
503938.796000,0.906,-0.24,-0.123,-6.68,25.94,-18.56
503938.843000,0.889,-0.126,0.003,-29.45,32.69,2.08
503938.890000,1.121,-0.358,-0.078,11.87,-10.74,46.91
503938.937000,1.18,-0.218,-0.024,-10.28,63.17,3.94
503938.984000,0.845,-0.3,0.364,10.16,71.29,2.96
503939.031000,0.725,-0.241,0.407,-49.87,48.55,-25.42
503939.078000,0.835,-0.333,-0.0,-39.16,-26.4,8.7
503939.125000,0.933,-0.296,-0.11,-38.27,-12.27,-8.64
503939.171000,0.996,-0.257,-0.099,-14.89,2.96,4.61
503939.218000,0.906,-0.322,-0.048,-5.74,-8.18,14.56
503939.265000,0.951,-0.326,-0.132,-2.81,11.93,-2.08
503939.312000,0.929,-0.302,-0.15,12.57,-13.0,18.92
503939.359000,0.936,-0.278,-0.157,-0.27,4.12,-12.79
503939.406000,1.002,-0.317,-0.235,8.51,0.61,-0.7
503939.453000,0.881,-0.269,-0.152,1.31,7.51,-6.07
503939.500000,0.907,-0.314,-0.161,6.68,2.81,-2.62
503939.546000,0.871,-0.258,-0.14,5.58,-0.09,-3.57
503939.593000,0.905,-0.329,-0.185,8.73,-11.11,5.37
503939.640000,0.988,-0.259,-0.224,5.28,-2.17,-0.37
503939.687000,0.955,-0.281,-0.21,1.65,5.55,2.59
503939.734000,0.877,-0.359,-0.157,8.09,10.04,8.82
503939.781000,0.889,-0.269,-0.143,-1.53,1.53,4.09
503939.828000,0.932,-0.331,-0.199,9.61,-3.39,5.13
503939.875000,0.926,-0.299,-0.158,-8.55,-1.37,-0.34
503939.921000,0.946,-0.319,-0.189,3.33,-0.49,-0.58
503939.968000,0.92,-0.335,-0.163,-0.27,-0.4,3.57
503940.015000,0.919,-0.312,-0.178,5.25,4.21,-0.03
503940.062000,0.901,-0.331,-0.134,-1.98,-1.07,2.47
503940.109000,0.913,-0.317,-0.17,6.87,3.42,2.59
503940.156000,0.89,-0.323,-0.137,0.92,-4.52,2.01
503940.203000,0.916,-0.333,-0.16,1.62,0.24,2.44
503940.250000,0.912,-0.317,-0.165,1.1,-2.14,4.79
503940.296000,0.931,-0.347,-0.174,2.47,1.62,1.89
503940.343000,0.907,-0.335,-0.163,4.21,0.24,4.27
503940.390000,0.898,-0.338,-0.12,-0.52,2.96,-1.1
503940.437000,0.932,-0.348,-0.206,4.79,-2.29,-0.73
503940.484000,0.896,-0.32,-0.141,0.0,-0.76,1.83
503940.531000,0.895,-0.327,-0.182,-0.46,1.37,-2.47
503940.578000,0.918,-0.336,-0.167,-0.15,-2.72,1.53
503940.625000,0.926,-0.35,-0.202,0.67,-0.79,3.94
503940.671000,0.907,-0.324,-0.137,1.53,0.49,1.68
503940.718000,0.929,-0.354,-0.095,-1.92,-3.2,2.01
503940.765000,0.991,-0.342,-0.003,2.62,-4.15,-1.89
503940.812000,1.12,-0.344,0.33,8.88,8.42,-21.18
503940.859000,1.035,-0.216,0.554,-3.88,33.17,-36.77
503940.906000,0.96,-0.423,0.637,13.64,12.27,-26.64
503940.953000,0.975,-0.351,0.364,7.84,10.53,-27.5
503941.000000,0.862,-0.184,0.204,4.55,-3.97,-25.85
503941.046000,0.776,-0.249,0.051,-48.83,-20.66,-13.09
503941.093000,0.497,-0.09,-0.242,-74.16,-51.33,-15.75
503941.140000,0.682,-0.244,-0.746,-57.01,-119.36,16.3
503941.203000,0.55,0.042,-0.645,-64.82,-63.05,-21.85
503941.250000,0.728,0.26,-1.069,-80.84,-73.7,-32.53
503941.296000,0.823,-0.07,-1.097,-49.2,-103.34,81.58
503941.343000,0.852,-0.312,-0.804,1.95,-8.27,65.03
503941.390000,0.785,-0.315,-0.713,3.63,-40.59,56.18
503941.437000,0.835,-0.39,-0.823,34.39,-27.65,31.16
503941.500000,0.738,-0.116,-0.637,24.23,7.17,-9.0
503941.546000,0.826,-0.144,-0.637,11.6,2.75,-5.31
503941.593000,0.775,-0.14,-0.572,-2.84,-0.76,-9.67
503941.640000,0.76,-0.193,-0.55,6.84,3.57,6.32
503941.687000,0.767,-0.251,-0.562,-16.21,-9.77,-5.58
503941.750000,0.798,-0.273,-0.507,8.73,5.86,2.69
503941.796000,0.837,-0.264,-0.62,6.87,3.57,-3.42
503941.843000,0.761,-0.267,-0.525,1.34,0.4,1.56
503941.890000,0.778,-0.227,-0.546,-0.31,6.41,-5.8
503941.937000,0.753,-0.236,-0.516,0.49,2.26,7.23
503941.984000,0.789,-0.211,-0.544,-2.99,1.53,-2.78
503942.031000,0.76,-0.217,-0.467,-2.32,0.85,7.45
503942.078000,0.814,-0.278,-0.574,-0.15,0.89,7.08
503942.125000,0.776,-0.282,-0.517,-6.44,0.73,0.21
503942.171000,0.776,-0.297,-0.539,1.31,0.98,8.48
503942.218000,0.766,-0.309,-0.47,0.09,5.37,-2.14
503942.265000,0.751,-0.259,-0.527,-1.4,1.83,0.0
503942.328000,0.772,-0.275,-0.536,-2.81,-0.31,-0.34
503942.375000,0.795,-0.308,-0.531,-1.62,-4.79,0.7
503942.421000,0.777,-0.294,-0.526,0.76,-4.39,3.05
503942.468000,0.768,-0.253,-0.524,-1.56,0.76,-3.14
503942.515000,0.802,-0.292,-0.589,-0.21,-5.25,5.92
503942.562000,0.757,-0.222,-0.556,-0.43,-3.36,1.22
503942.609000,0.76,-0.301,-0.695,2.53,-2.87,-2.01
503942.656000,0.836,-0.201,-0.718,5.37,2.23,-29.73
503942.703000,0.739,-0.297,-0.858,22.83,-0.89,5.04
503942.750000,0.845,-0.522,-1.098,72.82,31.19,-35.71
503942.796000,0.481,-0.147,-0.913,55.94,69.73,-85.57
503942.843000,0.689,-0.272,-0.919,79.68,71.93,-65.61
503942.890000,0.614,0.101,-0.566,42.02,35.68,-66.26
503942.937000,0.847,-0.185,-0.601,39.03,-4.94,3.2
503943.000000,0.874,-0.121,-0.222,-22.46,31.74,-19.93
503943.046000,0.964,-0.136,-0.224,-30.49,20.29,-5.01
503943.093000,0.969,-0.083,-0.195,-70.68,48.65,3.94
503943.140000,0.911,-0.182,-0.052,-91.28,5.83,19.14
503943.187000,0.946,-0.314,-0.069,-29.11,53.44,33.85
503943.234000,0.888,-0.251,0.163,-47.27,47.43,7.72
503943.281000,0.984,-0.063,0.23,-4.27,82.0,12.7
503943.328000,0.844,-0.109,0.193,-19.53,57.89,-14.68
503943.375000,0.902,-0.298,0.066,-29.69,6.62,25.42
503943.421000,0.989,-0.193,0.02,-23.01,3.57,-6.5
503943.468000,0.953,-0.205,0.075,-11.08,-6.41,8.42
503943.515000,0.98,-0.238,-0.065,0.7,-8.18,2.72
503943.562000,0.932,-0.173,-0.052,7.9,-10.13,7.2
503943.609000,0.973,-0.198,-0.134,17.21,-4.06,6.53
503943.656000,0.957,-0.165,-0.119,14.59,-3.36,4.03
503943.703000,0.968,-0.208,-0.18,16.82,-13.43,6.2
503943.750000,1.0,-0.164,-0.164,12.63,-5.95,-2.32
503943.796000,0.949,-0.198,-0.172,11.08,-5.04,2.78
503943.843000,0.954,-0.225,-0.177,10.1,-3.08,-0.27
503943.890000,0.947,-0.183,-0.174,11.99,0.37,0.37
503943.937000,0.938,-0.201,-0.169,7.17,-4.03,0.55
503943.984000,0.938,-0.191,-0.16,8.21,-6.87,2.41
503944.031000,0.931,-0.208,-0.171,3.23,0.18,2.14
503944.078000,0.968,-0.223,-0.204,8.33,-3.81,-1.71
503944.125000,0.941,-0.158,-0.183,4.39,3.11,3.48
503944.171000,0.947,-0.23,-0.159,-0.03,2.29,5.83
503944.218000,0.917,-0.216,-0.156,-3.08,2.11,3.17
503944.265000,0.934,-0.227,-0.142,-1.92,-3.78,1.16
503944.312000,0.903,-0.227,-0.13,1.71,-2.53,2.14
503944.359000,0.964,-0.22,-0.171,-3.08,-6.96,-3.05
503944.406000,0.945,-0.231,-0.175,2.2,-8.27,6.35
503944.453000,0.948,-0.22,-0.19,-3.05,1.16,-5.8
503944.500000,0.957,-0.231,-0.185,5.77,-3.3,3.91
503944.546000,0.942,-0.202,-0.152,0.7,1.92,-6.93
503944.593000,0.939,-0.224,-0.182,1.65,-7.2,0.85
503944.640000,0.961,-0.202,-0.2,2.04,3.45,-4.09
503944.687000,0.926,-0.203,-0.149,-0.55,-2.69,-0.73
503944.734000,0.943,-0.216,-0.21,3.97,0.31,-1.16
503944.781000,0.911,-0.208,-0.161,0.06,-4.82,1.56
503944.828000,0.972,-0.222,-0.235,6.32,-2.56,1.56
503944.875000,0.938,-0.196,-0.103,4.46,1.16,1.31
503944.921000,1.007,-0.216,-0.068,5.49,-4.39,0.12
503944.968000,1.04,-0.224,0.084,8.12,3.63,-12.39
503945.015000,1.04,-0.249,0.371,24.81,9.55,-13.06
503945.062000,0.904,-0.257,0.443,33.88,6.26,-18.04
503945.109000,0.918,-0.443,0.35,52.4,-18.1,-1.22
503945.156000,0.956,-0.346,0.25,75.53,20.84,-28.14
503945.203000,1.002,-0.212,0.033,26.95,-12.18,-1.56
503945.250000,0.83,-0.013,0.062,-23.13,-9.92,-32.47
503945.296000,0.726,0.096,-0.27,-39.31,-77.79,10.56
503945.343000,0.687,0.042,-0.518,-76.3,-89.21,-14.28
503945.390000,0.523,-0.026,-0.794,-92.62,-133.3,13.76
503945.437000,0.645,-0.018,-0.923,-74.16,-143.53,-18.52
503945.484000,0.847,0.175,-0.972,-110.42,-70.22,-18.49
503945.531000,0.586,0.206,-1.009,-65.46,-51.36,40.89
503945.578000,0.662,-0.139,-0.955,-18.07,-46.51,101.54
503945.625000,0.763,-0.205,-0.84,10.01,-33.78,55.57
503945.671000,0.702,-0.234,-0.732,22.61,3.48,24.08
503945.718000,0.763,-0.101,-0.707,1.77,-8.21,-10.44
503945.765000,0.751,-0.164,-0.674,20.63,8.48,6.07
503945.812000,0.78,-0.188,-0.671,6.9,-2.29,-2.23
503945.859000,0.748,-0.199,-0.672,23.19,17.58,6.07
503945.906000,0.734,-0.271,-0.582,11.99,-1.19,-6.38
503945.953000,0.819,-0.122,-0.64,14.59,17.73,-7.93
503946.000000,0.752,-0.217,-0.534,10.32,1.07,4.15
503946.046000,0.766,-0.157,-0.519,8.55,21.79,-9.89
503946.093000,0.763,-0.215,-0.485,7.14,1.68,9.43
503946.140000,0.758,-0.223,-0.564,13.46,16.85,9.83
503946.187000,0.727,-0.248,-0.556,0.64,2.38,0.79
503946.234000,0.771,-0.209,-0.637,2.99,24.69,-9.58
503946.281000,0.744,-0.188,-0.543,-5.07,-6.38,-1.04
503946.328000,0.741,-0.182,-0.519,3.91,13.03,-0.27
503946.375000,0.757,-0.205,-0.627,-2.38,-12.18,8.18
503946.421000,0.741,-0.236,-0.531,-4.85,1.01,2.41
503946.468000,0.799,-0.227,-0.594,-1.16,0.85,5.92
503946.515000,0.789,-0.265,-0.605,10.68,17.09,2.14
503946.562000,0.835,-0.209,-0.662,4.18,3.02,-7.2
503946.609000,0.779,-0.225,-0.486,10.65,24.14,0.21
503946.656000,0.839,-0.195,-0.655,-0.73,-6.29,-1.31
503946.703000,0.784,-0.254,-0.426,6.35,11.51,1.83
503946.750000,0.833,-0.254,-0.63,5.77,4.58,-0.95
503946.796000,0.759,-0.259,-0.433,-0.46,7.66,-3.08
503946.843000,0.817,-0.233,-0.618,1.83,0.64,0.0
503946.890000,0.768,-0.257,-0.481,-1.4,-4.82,1.53
503946.937000,0.83,-0.243,-0.564,1.65,-1.07,-2.75
503946.984000,0.79,-0.253,-0.473,6.99,-6.53,6.32
503947.031000,0.784,-0.24,-0.561,1.13,8.0,-3.81
503947.078000,0.811,-0.236,-0.62,-1.77,-7.9,4.0
503947.125000,0.788,-0.239,-0.642,8.67,6.26,7.11
503947.171000,0.778,-0.292,-0.74,10.86,0.61,3.39
503947.218000,0.863,-0.214,-0.91,29.63,12.85,-13.28
503947.265000,0.587,-0.192,-0.714,29.42,-1.13,-1.59
503947.328000,0.748,-0.19,-0.831,55.33,61.68,-64.33
503947.375000,0.58,-0.102,-0.696,32.84,5.13,2.04
503947.421000,0.816,-0.257,-0.805,64.52,36.87,-25.12
503947.468000,0.696,-0.254,-0.44,14.77,27.34,-7.81
503947.515000,0.897,-0.292,-0.491,20.97,16.42,-15.26
503947.562000,0.792,-0.317,-0.135,-2.84,40.56,-17.4
503947.609000,0.949,-0.2,-0.206,-7.54,25.94,-20.63
503947.656000,0.901,-0.188,-0.139,-46.05,54.54,-17.46
503947.703000,0.96,-0.331,0.007,-50.72,19.9,28.87
503947.750000,0.99,-0.333,-0.094,-28.57,44.65,5.83
503947.796000,1.111,-0.107,0.147,3.36,75.93,-20.29
503947.843000,0.847,0.046,0.452,-62.32,63.2,-11.08
503947.890000,0.869,-0.269,0.034,-61.92,-6.74,17.94
503947.937000,0.915,-0.416,0.064,-25.36,-7.2,4.27
503948.000000,1.013,-0.22,-0.083,1.5,-10.53,-8.12
503948.046000,0.99,-0.168,-0.064,10.32,-0.61,5.07
503948.093000,0.96,-0.181,-0.123,23.38,7.35,-5.01
503948.140000,0.971,-0.186,-0.131,18.22,-3.42,0.92
503948.187000,0.953,-0.145,-0.128,24.96,3.78,-1.62
503948.234000,0.973,-0.148,-0.14,14.28,-2.96,-1.59
503948.281000,0.938,-0.177,-0.157,17.4,1.68,-4.7
503948.328000,0.961,-0.152,-0.164,12.36,0.64,-1.89
503948.375000,0.955,-0.224,-0.162,16.54,-0.43,0.79
503948.421000,0.948,-0.122,-0.129,6.2,1.89,-5.83
503948.468000,0.952,-0.187,-0.128,12.6,4.06,0.82
503948.515000,0.956,-0.145,-0.127,-2.08,-1.89,0.43
503948.562000,0.948,-0.235,-0.148,8.15,3.72,-1.5
503948.609000,0.959,-0.132,-0.104,7.11,0.58,-3.91
503948.656000,0.968,-0.166,-0.157,1.01,-0.21,3.02
503948.718000,0.943,-0.181,-0.115,2.35,1.53,-1.1
503948.765000,0.971,-0.191,-0.129,2.38,-2.2,4.43
503948.812000,0.924,-0.168,-0.087,0.21,-2.14,-2.11
503948.859000,0.975,-0.187,-0.158,-1.59,-4.7,5.83
503948.906000,0.96,-0.203,-0.124,0.34,4.21,-0.95
503948.953000,0.975,-0.182,-0.147,2.72,-0.49,1.56
503949.000000,0.916,-0.167,-0.068,3.51,0.4,3.81
503949.046000,1.003,-0.224,-0.137,7.35,-5.83,11.17
503949.093000,0.948,-0.194,-0.061,3.78,2.81,-1.77
503949.140000,0.953,-0.177,-0.089,9.34,-0.64,0.18
503949.187000,0.98,-0.209,-0.134,9.09,-4.43,-3.72
503949.234000,0.948,-0.189,-0.121,12.85,-0.21,-0.31
503949.281000,0.955,-0.184,-0.139,9.37,4.67,-5.92
503949.328000,0.926,-0.192,-0.126,6.07,-1.95,4.18
503949.375000,0.958,-0.172,-0.136,3.48,1.71,-0.18
503949.421000,0.956,-0.193,-0.141,-1.56,3.05,2.29
503949.484000,0.945,-0.197,-0.077,-6.47,-8.76,12.02
503949.531000,0.969,-0.194,-0.057,-9.61,1.68,0.52
503949.578000,1.042,-0.22,0.076,-7.05,-7.32,12.57
503949.625000,1.059,-0.212,0.155,-0.12,8.45,6.32
503949.671000,0.933,-0.174,0.482,11.47,28.44,7.57
503949.718000,0.836,-0.435,0.499,25.24,-10.13,39.49
503949.765000,0.871,-0.519,0.402,49.56,-31.95,18.92
503949.812000,0.899,-0.318,0.114,-0.85,-50.02,-14.89
503949.859000,1.042,-0.325,-0.124,16.69,-64.0,10.13
503949.906000,0.88,-0.168,-0.161,-29.05,-40.83,-3.36
503949.953000,0.901,-0.134,-0.263,-52.46,-39.74,0.12
503950.000000,0.79,-0.513,-0.744,-3.6,-82.55,59.76
503950.046000,0.834,-0.296,-0.448,-43.92,-15.05,-27.44
503950.093000,0.63,0.17,-0.237,-49.2,-23.71,-39.83
503950.140000,0.736,0.033,-0.584,-43.31,-53.29,9.83
503950.187000,0.501,0.134,-0.672,-102.36,-55.48,-17.46
503950.234000,0.744,-0.023,-1.071,-73.15,-52.1,9.03
503950.281000,0.831,-0.253,-1.112,-29.85,-71.9,51.7
503950.328000,0.868,-0.385,-0.832,-0.37,-11.63,22.77
503950.375000,0.788,-0.202,-0.74,9.49,-14.07,11.72
503950.437000,0.83,-0.162,-0.595,18.68,12.12,-24.87
503950.484000,0.669,-0.153,-0.545,7.32,3.66,1.4
503950.531000,0.793,-0.127,-0.58,4.46,7.87,-8.33
503950.578000,0.824,-0.053,-0.644,0.0,0.52,-9.09
503950.625000,0.706,-0.177,-0.517,3.36,0.46,12.88
503950.671000,0.805,-0.134,-0.636,-4.94,2.26,-3.05
503950.718000,0.762,-0.253,-0.533,10.59,-2.04,16.54
503950.765000,0.729,-0.149,-0.571,5.58,5.58,-2.38
503950.812000,0.771,-0.216,-0.585,8.67,-3.17,12.54
503950.859000,0.746,-0.186,-0.534,3.97,-6.84,7.9
503950.921000,0.682,-0.265,-0.54,-0.67,-7.11,-2.11
503950.968000,0.779,-0.128,-0.6,-10.47,-1.43,-14.16
503951.015000,0.821,-0.208,-0.622,3.39,-11.9,12.48
503951.062000,0.741,-0.265,-0.538,3.33,-1.77,3.17
503951.109000,0.763,-0.204,-0.655,3.75,2.81,0.89
503951.156000,0.777,-0.228,-0.604,5.43,-1.83,-1.19
503951.203000,0.763,-0.167,-0.595,2.84,2.04,-6.1
503951.250000,0.744,-0.175,-0.6,-0.67,0.15,2.41
503951.296000,0.757,-0.197,-0.61,-3.6,-3.91,1.65
503951.343000,0.724,-0.211,-0.55,-1.59,6.01,-2.14
503951.390000,0.777,-0.184,-0.676,-5.98,-3.51,-1.89
503951.437000,0.741,-0.203,-0.557,0.85,-2.17,3.63
503951.484000,0.77,-0.176,-0.666,1.04,0.0,-1.1
503951.531000,0.752,-0.184,-0.598,1.62,-3.02,4.91
503951.578000,0.726,-0.216,-0.641,5.46,0.15,7.2
503951.625000,0.701,-0.209,-0.65,4.58,2.81,0.31
503951.671000,0.74,-0.218,-0.722,17.7,0.76,8.48
503951.718000,0.647,-0.418,-0.794,3.69,1.28,-11.44
503951.765000,0.777,-0.197,-0.891,16.21,15.87,-45.81
503951.812000,0.64,-0.207,-0.748,41.69,1.86,1.34
503951.859000,0.782,-0.187,-0.932,47.3,35.28,-40.1
503951.906000,0.628,-0.009,-0.723,35.68,32.96,-31.46
503951.953000,0.803,-0.106,-0.687,52.83,35.28,-18.62
503952.000000,0.676,-0.001,-0.541,24.38,34.3,-17.18
503952.046000,0.811,-0.176,-0.613,38.12,34.12,-8.55
503952.093000,0.758,-0.27,-0.337,9.49,32.47,-11.96
503952.140000,0.82,-0.241,-0.454,-4.7,14.56,-10.77
503952.187000,0.908,-0.284,-0.414,1.89,28.44,-9.77
503952.234000,0.868,-0.169,-0.226,-9.46,32.62,-8.06
503952.281000,0.91,-0.31,-0.223,0.55,35.34,-1.74
503952.328000,0.976,-0.156,-0.198,-28.84,45.9,-17.33
503952.375000,0.904,-0.139,-0.091,-25.88,44.92,21.91
503952.421000,0.806,-0.198,0.037,-44.01,34.61,6.5
503952.468000,1.02,-0.095,0.049,-25.97,41.38,-2.01
503952.515000,0.943,0.105,-0.018,-40.31,70.68,-10.32
503952.562000,0.931,-0.251,0.147,-28.69,-10.28,41.81
503952.609000,0.973,-0.401,-0.012,-31.19,0.43,14.13
503952.656000,1.02,-0.242,-0.117,10.07,-16.36,1.71
503952.703000,0.989,-0.196,-0.098,8.88,3.02,-2.53
503952.750000,1.015,-0.131,-0.163,14.13,-8.39,6.44
503952.796000,0.949,-0.223,-0.214,14.53,3.48,0.37
503952.843000,0.96,-0.146,-0.171,18.34,3.42,3.36
503952.890000,0.906,-0.231,-0.155,16.97,-4.46,-5.1
503952.937000,0.985,-0.149,-0.209,17.15,-8.06,-1.22
503952.984000,0.912,-0.205,-0.165,16.85,0.73,-3.63
503953.031000,0.923,-0.174,-0.194,10.65,-7.42,1.46
503953.078000,0.943,-0.167,-0.174,5.19,-5.16,-5.62
503953.125000,0.973,-0.209,-0.233,8.15,-5.34,2.56
503953.171000,0.941,-0.153,-0.2,3.66,-2.32,0.06
503953.218000,0.957,-0.222,-0.214,6.78,-0.64,6.16
503953.265000,0.937,-0.179,-0.18,2.17,1.37,-1.28
503953.312000,0.97,-0.208,-0.197,3.69,0.89,-0.76
503953.359000,0.975,-0.198,-0.204,3.91,14.34,-4.09
503953.406000,0.93,-0.216,-0.162,0.27,13.0,0.31
503953.453000,0.931,-0.204,-0.154,-3.08,3.6,5.04
503953.500000,0.923,-0.24,-0.14,-1.89,7.32,-1.71
503953.546000,0.928,-0.227,-0.151,-0.49,-2.69,1.77
503953.593000,0.966,-0.16,-0.151,0.49,1.92,-5.49
503953.640000,0.942,-0.199,-0.144,2.78,2.72,1.56
503953.687000,0.913,-0.191,-0.165,-1.53,-2.38,7.87
503953.734000,0.95,-0.235,-0.151,1.5,2.11,8.09
503953.781000,0.957,-0.232,-0.156,2.66,-1.83,6.81
503953.828000,0.967,-0.245,-0.166,0.21,1.22,3.45
503953.875000,0.95,-0.228,-0.134,2.81,1.46,1.22
503953.937000,0.936,-0.174,-0.144,-6.53,3.11,-5.31
503953.984000,0.926,-0.233,-0.131,0.37,-4.3,8.27
503954.031000,0.934,-0.213,-0.133,-0.4,2.87,5.37
503954.078000,0.951,-0.236,-0.107,5.07,-2.69,6.68
503954.125000,0.973,-0.267,-0.001,5.01,-4.94,5.4
503954.171000,0.99,-0.365,0.119,18.71,-8.58,4.18
503954.218000,0.975,-0.166,0.221,33.69,7.9,-16.57
503954.265000,0.903,-0.24,0.388,49.44,-5.98,40.13
503954.312000,0.961,-0.409,0.246,52.92,-24.78,38.18
503954.359000,0.96,-0.529,0.243,38.54,-36.35,29.21
503954.406000,1.034,-0.36,0.04,39.64,-27.65,7.84
503954.453000,0.852,-0.258,0.008,-2.29,-39.74,16.51
503954.500000,0.886,-0.23,-0.16,-38.61,-30.09,-5.58
503954.546000,0.745,-0.355,-0.446,-26.83,-41.54,24.96
503954.593000,0.641,-0.418,-0.417,-42.51,-23.71,-16.39
503954.640000,0.822,-0.242,-0.624,-54.23,-48.4,-44.47
503954.687000,0.764,-0.085,-0.538,-34.49,-35.31,-35.58
503954.734000,0.658,0.081,-0.578,-77.52,-53.07,-35.68
503954.781000,0.787,-0.027,-0.893,-60.67,-85.3,20.69
503954.828000,0.706,-0.126,-0.881,-59.54,-46.36,15.66
503954.875000,0.774,-0.253,-0.826,-50.54,-43.67,31.25
503954.921000,0.841,-0.296,-0.834,-18.92,-34.58,29.97
503954.968000,0.787,-0.296,-0.753,-13.0,-17.33,15.2
503955.015000,0.716,-0.253,-0.601,3.66,-2.32,5.1
503955.062000,0.775,-0.12,-0.651,7.02,7.05,-4.82
503955.109000,0.753,-0.261,-0.597,13.61,-13.0,9.25
503955.156000,0.738,-0.125,-0.606,1.1,4.7,-8.24
503955.203000,0.772,-0.174,-0.631,1.68,-13.28,8.91
503955.250000,0.722,-0.234,-0.577,11.9,-5.1,18.49
503955.296000,0.779,-0.203,-0.655,-4.21,-6.56,-4.52
503955.343000,0.745,-0.242,-0.581,12.21,0.09,13.31
503955.390000,0.757,-0.233,-0.677,0.31,-8.24,-1.68
503955.437000,0.726,-0.275,-0.58,5.62,0.18,9.22
503955.484000,0.791,-0.3,-0.653,6.78,1.83,-0.82
503955.531000,0.706,-0.274,-0.564,8.42,8.51,1.71
503955.578000,0.776,-0.27,-0.628,1.8,3.23,-6.9
503955.625000,0.755,-0.26,-0.547,8.3,10.68,0.4
503955.671000,0.761,-0.22,-0.586,1.95,5.13,-0.67
503955.718000,0.718,-0.247,-0.526,-3.17,3.69,0.4
503955.765000,0.757,-0.23,-0.622,0.79,0.82,1.92
503955.812000,0.709,-0.256,-0.541,-5.98,-7.72,2.99
503955.859000,0.748,-0.233,-0.634,-1.46,-0.31,2.23
503955.921000,0.733,-0.28,-0.652,-2.53,-8.51,6.59
503955.968000,0.783,-0.254,-0.71,11.96,12.7,-4.03
503956.015000,0.823,-0.333,-0.831,16.05,0.92,-4.27
503956.062000,0.703,-0.287,-0.735,27.28,23.83,-23.07
503956.109000,0.636,-0.293,-0.762,37.29,11.78,4.73
503956.156000,0.527,-0.233,-0.79,26.03,-24.23,-6.35
503956.203000,0.676,-0.259,-0.879,50.57,35.83,-51.58
503956.250000,0.545,-0.179,-0.619,42.21,16.11,-12.24
503956.296000,0.854,-0.26,-0.78,46.66,11.26,-31.71
503956.343000,0.743,-0.133,-0.461,19.78,45.81,-39.16
503956.390000,0.881,-0.269,-0.472,19.17,13.31,8.3
503956.437000,0.858,-0.272,-0.407,-10.41,41.26,-24.32
503956.484000,0.86,-0.399,-0.277,-0.03,42.94,10.99
503956.531000,0.797,-0.283,-0.27,-28.11,47.33,-18.89
503956.578000,0.849,-0.297,-0.177,-27.25,43.79,-4.73
503956.625000,0.893,-0.251,-0.204,-66.74,32.11,-10.01
503956.671000,0.973,-0.269,-0.091,-89.85,30.85,-12.73
503956.718000,1.043,-0.129,-0.099,-57.13,30.27,9.28
503956.765000,1.056,-0.072,-0.008,-37.57,60.64,1.19
503956.812000,1.014,-0.067,0.114,-22.4,67.81,8.55
503956.859000,0.861,-0.187,0.135,-44.37,44.19,2.93
503956.906000,0.867,-0.185,0.052,-15.35,8.27,6.04
503956.953000,0.882,-0.155,-0.005,-8.48,-7.66,5.68
503957.000000,0.975,-0.18,-0.131,4.79,-16.48,10.77
503957.046000,1.022,-0.176,-0.173,4.97,-9.55,7.72
503957.093000,0.998,-0.167,-0.231,15.35,-4.09,4.55
503957.140000,0.986,-0.163,-0.157,15.84,6.04,-2.87
503957.187000,0.948,-0.193,-0.15,16.69,4.82,-1.89
503957.234000,0.944,-0.178,-0.156,15.38,1.4,-6.78
503957.281000,0.935,-0.161,-0.181,13.18,-12.33,-0.58
503957.328000,0.946,-0.151,-0.183,6.2,-6.87,-5.8
503957.375000,0.918,-0.101,-0.152,6.56,-0.52,-4.94
503957.421000,0.942,-0.147,-0.207,8.73,-7.08,4.09
503957.468000,0.937,-0.18,-0.173,6.68,-7.08,3.75
503957.515000,0.954,-0.146,-0.181,4.15,-1.8,0.79
503957.562000,0.957,-0.171,-0.175,4.39,-2.44,0.76
503957.609000,0.935,-0.194,-0.225,7.05,-6.62,4.49
503957.656000,0.944,-0.153,-0.23,0.7,-2.41,-3.05
503957.703000,0.941,-0.194,-0.22,5.22,-0.15,-0.79
503957.750000,0.944,-0.192,-0.208,8.0,-4.09,3.6
503957.796000,0.952,-0.186,-0.187,0.67,3.39,-5.22
503957.843000,0.955,-0.165,-0.189,5.52,-0.95,-0.09
503957.890000,0.933,-0.144,-0.194,0.0,-2.72,1.19
503957.937000,0.944,-0.194,-0.221,-0.24,2.41,0.52
503957.984000,0.935,-0.163,-0.229,-1.37,1.1,1.65
503958.031000,0.931,-0.143,-0.168,-2.78,2.14,2.66
503958.078000,0.941,-0.215,-0.189,-2.29,-5.01,4.7
503958.125000,0.954,-0.177,-0.193,-0.58,7.32,0.24
503958.171000,0.931,-0.192,-0.192,-3.48,-12.42,3.88
503958.218000,0.964,-0.192,-0.216,2.5,4.79,-1.59
503958.265000,0.946,-0.171,-0.18,3.6,-5.13,5.16
503958.312000,0.937,-0.143,-0.12,5.13,3.66,-1.4
503958.375000,0.942,-0.173,0.1,15.2,-7.17,7.26
503958.421000,0.92,-0.139,0.295,22.58,-15.59,0.89
503958.468000,0.981,-0.24,0.354,26.55,-30.98,7.78
503958.515000,0.997,-0.381,0.095,48.95,-52.86,26.92
503958.562000,0.974,-0.372,0.173,46.24,-16.72,-7.32
503958.609000,1.011,-0.333,-0.027,45.81,-26.89,17.33
503958.656000,0.822,-0.291,-0.114,19.53,1.92,0.98
503958.703000,0.753,-0.296,-0.186,-5.13,-17.49,-5.49
503958.750000,0.706,-0.428,-0.599,-25.39,-94.61,42.91
503958.796000,0.833,-0.436,-0.686,-30.34,-27.89,-35.68
503958.843000,0.634,-0.076,-0.62,-73.64,-50.78,-24.57
503958.890000,0.824,0.008,-0.811,-111.27,-44.71,-39.95
503958.937000,0.607,0.207,-0.764,-78.49,-61.49,10.25
503958.984000,0.705,-0.013,-0.944,-63.88,-86.31,76.97
503959.031000,0.564,-0.176,-0.818,-38.76,-39.09,55.18
503959.078000,0.708,-0.161,-0.928,-46.69,-42.24,11.32
503959.125000,0.675,-0.151,-0.728,-7.39,-4.49,1.13
503959.171000,0.815,-0.05,-0.794,1.77,-5.31,1.13
503959.218000,0.713,-0.154,-0.651,7.54,-8.97,17.64
503959.265000,0.77,-0.13,-0.775,12.94,-3.3,0.52
503959.312000,0.728,-0.144,-0.675,5.65,-4.0,-7.75
503959.359000,0.729,-0.07,-0.703,8.79,-1.19,-13.37
503959.406000,0.73,-0.104,-0.626,6.93,-3.3,0.76
503959.453000,0.71,-0.086,-0.627,7.87,-1.5,7.78
503959.500000,0.74,-0.14,-0.679,4.7,-5.16,6.32
503959.546000,0.695,-0.146,-0.628,3.57,3.33,0.82
503959.593000,0.713,-0.129,-0.69,-2.5,-1.07,1.65
503959.640000,0.706,-0.18,-0.617,-1.25,-1.37,-0.06
503959.687000,0.712,-0.156,-0.665,-1.5,2.41,-0.73
503959.734000,0.703,-0.159,-0.631,-1.1,-7.6,1.43
503959.781000,0.746,-0.165,-0.635,0.98,7.2,-1.28
503959.828000,0.692,-0.153,-0.61,-4.76,-10.44,2.87
503959.875000,0.764,-0.152,-0.724,2.17,2.93,3.45
503959.921000,0.71,-0.15,-0.649,-5.1,-10.04,-2.47
503959.968000,0.715,-0.133,-0.651,1.28,6.16,-0.37
503960.015000,0.725,-0.145,-0.695,-3.02,-13.4,7.26
503960.062000,0.7,-0.186,-0.625,-1.71,2.84,0.58
503960.109000,0.729,-0.15,-0.711,0.21,-2.84,2.59
503960.156000,0.713,-0.133,-0.665,-1.13,4.24,-1.74
503960.203000,0.707,-0.146,-0.654,-2.81,-4.15,1.59
503960.250000,0.673,-0.143,-0.625,-2.96,2.78,2.04
503960.296000,0.715,-0.131,-0.689,-9.46,-3.08,-0.27
503960.343000,0.662,-0.136,-0.591,-8.27,-5.37,-0.46
503960.390000,0.723,-0.16,-0.68,-2.04,-0.58,4.7
503960.437000,0.704,-0.151,-0.713,-2.01,-6.53,8.18
503960.484000,0.698,-0.164,-0.713,-1.19,-0.61,3.05
503960.531000,0.685,-0.17,-0.723,1.8,0.82,2.84
503960.578000,0.702,-0.162,-0.802,13.0,6.71,0.55
503960.625000,0.698,-0.261,-0.848,26.67,8.36,-6.78
503960.671000,0.657,-0.205,-0.922,39.19,23.62,-14.89
503960.718000,0.557,-0.26,-0.884,29.33,35.07,-40.44
503960.765000,0.607,0.004,-0.972,46.63,49.5,-61.89
503960.812000,0.591,-0.085,-0.758,54.6,27.65,-24.69
503960.859000,0.712,-0.037,-0.861,70.19,39.64,-32.69
503960.906000,0.726,-0.112,-0.592,52.22,35.31,-24.35
503960.953000,0.788,-0.12,-0.643,47.4,31.65,-6.38
503961.015000,0.82,-0.124,-0.398,16.21,22.25,-37.08
503961.062000,0.926,-0.138,-0.381,13.46,21.76,-19.5
503961.109000,0.891,-0.076,-0.257,-6.65,32.47,-26.49
503961.156000,0.981,-0.132,-0.291,-14.19,20.94,-3.75
503961.203000,0.9,-0.215,-0.288,-12.82,37.69,15.9
503961.250000,0.895,-0.225,-0.292,-13.09,52.43,16.21
503961.296000,0.961,-0.151,-0.11,-32.99,70.5,4.49
503961.343000,0.898,-0.048,0.048,-22.71,79.5,11.14
503961.390000,0.913,0.031,0.284,-47.3,72.6,2.47
503961.437000,0.892,-0.148,0.188,-85.06,12.42,23.13
503961.484000,0.959,-0.327,0.046,-55.79,10.44,24.05
503961.531000,0.958,-0.353,-0.053,-41.75,-6.5,22.74
503961.578000,1.063,-0.201,-0.123,-14.37,11.51,-2.26
503961.625000,0.98,-0.174,-0.025,-9.31,2.53,7.81
503961.687000,0.956,-0.133,-0.064,-8.51,9.67,2.08
503961.734000,0.925,-0.211,-0.076,1.92,-4.39,12.85
503961.781000,0.96,-0.141,-0.125,7.02,-3.3,0.55
503961.828000,0.969,-0.191,-0.142,3.27,-11.08,1.71
503961.875000,0.977,-0.176,-0.181,8.21,-1.19,-4.88
503961.921000,0.942,-0.169,-0.162,5.49,-5.92,-3.08
503961.968000,0.933,-0.18,-0.154,10.65,-2.17,-3.27
503962.015000,0.956,-0.145,-0.17,6.5,-3.39,-2.96
503962.062000,0.954,-0.174,-0.189,10.77,-3.72,2.38
503962.109000,0.955,-0.146,-0.181,7.6,3.88,1.04
503962.156000,0.958,-0.181,-0.173,0.43,2.08,0.58
503962.203000,0.946,-0.185,-0.163,4.24,0.7,2.72
503962.250000,0.966,-0.18,-0.169,0.76,1.74,-3.36
503962.296000,0.938,-0.18,-0.154,0.34,-3.66,-1.86
503962.343000,0.955,-0.172,-0.157,-0.85,-0.03,-0.76
503962.390000,0.937,-0.173,-0.168,-0.89,-3.78,1.1
503962.437000,0.954,-0.176,-0.157,0.92,1.68,-0.03
503962.484000,0.957,-0.196,-0.179,1.25,-2.53,2.38
503962.531000,0.947,-0.157,-0.153,-1.25,0.92,-1.56
503962.578000,0.955,-0.167,-0.156,-2.11,-3.17,3.17
503962.625000,0.947,-0.188,-0.169,-1.8,-2.08,0.98
503962.671000,0.952,-0.177,-0.159,-1.22,-0.46,-0.12
503962.718000,0.946,-0.161,-0.169,-2.29,-6.68,-0.06
503962.765000,0.948,-0.185,-0.196,-4.15,-5.8,4.39
503962.812000,0.945,-0.188,-0.174,-0.09,-3.42,1.4
503962.859000,0.957,-0.184,-0.189,0.49,-4.33,0.15
503962.906000,0.964,-0.19,-0.179,2.11,-1.86,3.02
503962.953000,0.953,-0.19,-0.16,3.6,-1.46,1.16
503963.015000,0.954,-0.179,-0.117,4.88,-4.46,0.7
503963.062000,0.975,-0.218,-0.028,10.32,-6.16,-4.06
503963.109000,0.973,-0.174,0.132,17.58,1.43,-17.37
503963.156000,1.068,-0.265,0.352,27.95,-9.83,0.37
503963.203000,1.075,-0.316,0.252,44.07,-8.27,16.05
503963.250000,1.001,-0.259,0.233,41.41,-0.21,10.68
503963.296000,0.945,-0.226,0.147,22.58,-14.31,16.05
503963.343000,0.785,-0.174,0.126,-4.88,-22.58,21.0
503963.390000,0.691,-0.289,-0.088,-3.33,-65.49,45.78
503963.437000,0.678,-0.162,-0.289,-26.55,-57.07,-4.18
503963.484000,0.743,-0.303,-0.629,-56.25,-107.55,-6.71
503963.531000,0.57,0.039,-0.678,-65.37,-68.42,-40.53
503963.578000,0.662,0.056,-0.91,-87.59,-89.48,-29.97
503963.625000,0.657,0.031,-0.977,-58.87,-49.17,-1.53
503963.671000,0.643,-0.088,-0.941,-23.53,-33.39,28.44
503963.718000,0.719,-0.219,-0.964,-19.71,-39.8,46.69
503963.765000,0.698,-0.142,-0.857,0.85,-15.05,13.15
503963.812000,0.696,-0.11,-0.811,-1.37,-22.28,29.91
503963.859000,0.819,-0.205,-0.829,5.77,-18.8,5.04
503963.906000,0.668,-0.151,-0.705,16.14,2.47,14.83
503963.953000,0.727,-0.1,-0.798,1.74,-13.58,-1.89
503964.000000,0.692,-0.151,-0.648,9.61,-0.58,1.56
503964.046000,0.707,-0.141,-0.712,10.16,-0.73,-1.77
503964.093000,0.702,-0.127,-0.665,6.23,3.69,-0.92
503964.156000,0.75,-0.196,-0.705,16.54,1.95,8.51
503964.203000,0.674,-0.165,-0.637,4.79,4.91,0.46
503964.250000,0.722,-0.162,-0.684,10.96,3.11,5.16
503964.296000,0.659,-0.224,-0.569,13.86,19.96,-1.01
503964.343000,0.67,-0.163,-0.591,3.85,11.54,-4.15
503964.390000,0.704,-0.22,-0.639,-1.04,-4.91,6.65
503964.437000,0.707,-0.222,-0.668,2.53,2.08,1.01
503964.484000,0.713,-0.237,-0.62,-2.11,-2.66,-0.4
503964.531000,0.775,-0.227,-0.738,14.04,15.23,-10.44
503964.578000,0.725,-0.204,-0.592,2.72,0.79,-2.44
503964.625000,0.751,-0.223,-0.633,8.85,12.36,-9.49
503964.671000,0.727,-0.215,-0.582,-0.27,3.69,-6.44
503964.718000,0.762,-0.174,-0.647,-2.29,3.11,-5.49
503964.765000,0.761,-0.208,-0.59,-4.67,-0.64,2.93
503964.812000,0.731,-0.188,-0.578,-1.65,1.89,2.93
503964.859000,0.733,-0.225,-0.625,-6.65,-1.1,1.25
503964.906000,0.721,-0.205,-0.585,-5.95,4.3,-1.25
503964.953000,0.751,-0.224,-0.647,-5.49,-4.33,2.5
503965.000000,0.702,-0.215,-0.594,-0.24,4.15,-0.58
503965.046000,0.723,-0.223,-0.666,2.56,2.5,-1.34
503965.093000,0.744,-0.204,-0.639,5.43,1.22,-0.73
503965.140000,0.708,-0.192,-0.637,10.74,5.8,-0.7
503965.187000,0.725,-0.2,-0.664,2.04,0.09,-4.33
503965.234000,0.737,-0.205,-0.715,16.02,6.38,-1.95
503965.281000,0.694,-0.271,-0.767,8.06,-2.14,-2.2
503965.328000,0.755,-0.235,-0.941,37.23,12.85,-8.51
503965.375000,0.576,-0.185,-0.773,31.53,16.36,-23.26
503965.421000,0.723,-0.102,-0.837,43.06,42.66,-43.24
503965.468000,0.739,-0.172,-0.66,39.4,21.39,-15.08
503965.515000,0.775,-0.175,-0.79,37.54,28.6,-24.32
503965.562000,0.702,-0.264,-0.53,26.0,26.15,-15.66
503965.609000,0.724,-0.183,-0.581,27.04,38.58,-20.66
503965.656000,0.803,-0.178,-0.47,2.5,24.14,-20.42
503965.703000,0.889,-0.264,-0.403,30.95,35.4,-5.68
503965.750000,0.88,-0.186,-0.383,-13.79,32.38,-17.49
503965.796000,0.915,-0.264,-0.352,21.73,44.34,6.5
503965.843000,0.918,-0.13,-0.254,-20.81,48.19,-9.98
503965.890000,0.923,-0.247,-0.12,-10.68,50.05,4.46
503965.937000,0.935,-0.207,-0.129,4.76,53.25,-12.21
503965.984000,0.849,-0.233,0.024,-16.63,60.7,-1.86
503966.031000,0.962,-0.107,0.102,-30.58,56.4,-9.0
503966.078000,0.892,-0.097,0.239,-35.34,37.66,-0.4
503966.125000,0.932,-0.096,0.151,-57.41,24.38,10.5
503966.171000,0.922,-0.185,0.038,-43.89,-1.1,12.85
503966.218000,0.958,-0.25,-0.005,-37.29,7.57,9.64
503966.265000,0.968,-0.188,-0.001,-18.13,-13.4,4.49
503966.312000,0.972,-0.23,-0.013,-16.39,-6.38,11.51
503966.359000,1.0,-0.214,-0.093,-7.42,-12.88,3.3
503966.406000,0.965,-0.205,-0.068,-0.89,5.65,6.47
503966.468000,0.969,-0.187,-0.197,4.64,-11.75,-1.89
503966.515000,0.967,-0.184,-0.102,8.88,-1.28,-2.84
503966.562000,0.953,-0.177,-0.143,9.95,-4.33,-0.52
503966.609000,0.95,-0.169,-0.163,5.28,-3.85,-4.67
503966.656000,0.954,-0.185,-0.21,8.91,-10.62,0.82
503966.703000,0.95,-0.148,-0.173,2.11,3.11,0.49
503966.750000,0.951,-0.239,-0.181,10.77,-5.83,6.68
503966.796000,0.952,-0.2,-0.187,0.7,1.25,1.43
503966.843000,0.959,-0.225,-0.146,2.99,0.31,6.32
503966.890000,0.958,-0.22,-0.203,2.53,1.25,-2.14
503966.937000,0.948,-0.201,-0.144,3.6,-2.9,0.7
503966.984000,0.945,-0.214,-0.215,2.29,-1.5,-0.27
503967.031000,0.963,-0.176,-0.162,0.98,2.59,0.34
503967.078000,0.946,-0.192,-0.152,4.73,-0.4,5.4
503967.125000,0.908,-0.233,-0.156,-1.31,-3.2,2.11
503967.171000,0.962,-0.197,-0.202,-2.93,-0.73,-0.79
503967.218000,0.954,-0.181,-0.164,-1.28,1.68,-0.06
503967.265000,0.957,-0.256,-0.228,1.71,-4.82,4.94
503967.312000,0.92,-0.203,-0.142,0.4,7.29,-1.07
503967.359000,0.947,-0.219,-0.147,1.43,-1.98,3.17
503967.406000,0.941,-0.213,-0.146,-2.38,0.27,1.25
503967.453000,0.938,-0.222,-0.173,-0.27,2.08,-2.66
503967.500000,0.944,-0.21,-0.174,-2.14,-0.06,0.12
503967.546000,0.942,-0.206,-0.178,0.55,2.69,0.03
503967.609000,0.933,-0.219,-0.166,1.74,-0.4,3.66
503967.656000,0.943,-0.208,-0.16,-0.98,-0.89,-1.31
503967.703000,0.944,-0.218,-0.185,0.31,-1.62,3.05
503967.750000,0.949,-0.205,-0.176,-2.93,0.24,-2.59
503967.796000,0.91,-0.203,-0.148,1.34,-2.32,4.76
503967.843000,0.953,-0.228,-0.114,1.83,-2.41,0.34
503967.890000,0.946,-0.24,-0.047,9.46,-3.63,3.23
503967.937000,0.989,-0.233,0.148,14.92,-5.25,-0.89
503967.984000,0.982,-0.319,0.392,41.44,-5.34,7.72
503968.046000,0.963,-0.239,0.466,51.48,-14.22,-3.48
503968.093000,0.937,-0.435,0.398,75.14,-51.03,18.25
503968.140000,0.919,-0.296,0.173,69.77,-41.32,-7.05
503968.187000,0.866,-0.358,-0.044,23.44,-82.28,33.3
503968.234000,0.739,-0.365,-0.343,-2.59,-86.12,24.96
503968.281000,0.798,-0.306,-0.508,-65.0,-40.07,-18.04
503968.328000,0.7,-0.156,-0.789,-56.98,-64.03,-15.72
503968.375000,0.578,-0.153,-0.778,-81.94,-35.4,-33.27
503968.421000,0.717,0.07,-0.919,-116.46,-45.29,-60.82
503968.468000,0.618,0.244,-0.866,-79.13,-13.52,-57.5
503968.515000,0.588,0.125,-0.89,-80.72,-44.28,11.81
503968.562000,0.623,-0.038,-0.821,-46.33,-42.85,57.83
503968.609000,0.697,-0.134,-0.931,-48.86,-60.49,46.39
503968.656000,0.731,-0.236,-0.753,-9.86,-14.31,17.21
503968.703000,0.714,-0.047,-0.768,-2.11,2.44,-26.15
503968.765000,0.791,0.007,-0.728,8.94,-1.68,-11.32
503968.812000,0.671,-0.008,-0.646,3.66,-10.19,9.03
503968.859000,0.747,-0.058,-0.672,9.28,-7.02,20.36
503968.906000,0.678,-0.075,-0.717,0.0,-4.27,0.03
503968.953000,0.733,-0.043,-0.624,10.16,1.89,1.31
503969.000000,0.713,-0.002,-0.707,9.55,-6.56,7.6
503969.046000,0.728,-0.088,-0.663,13.4,-7.69,21.52
503969.093000,0.724,-0.096,-0.649,1.92,-2.87,5.31
503969.140000,0.709,-0.132,-0.691,9.83,4.0,12.33
503969.187000,0.731,-0.137,-0.673,4.15,-0.92,4.06
503969.234000,0.712,-0.117,-0.677,5.34,5.62,5.4
503969.281000,0.721,-0.151,-0.658,0.76,-1.92,6.59
503969.343000,0.722,-0.137,-0.655,0.46,7.6,2.26
503969.390000,0.697,-0.165,-0.644,3.33,-5.86,8.55
503969.437000,0.7,-0.189,-0.645,2.75,1.16,5.13
503969.484000,0.708,-0.164,-0.653,-3.02,-6.5,-3.02
503969.531000,0.716,-0.175,-0.629,5.34,6.87,2.38
503969.578000,0.709,-0.157,-0.667,-1.07,-5.77,-4.21
503969.625000,0.701,-0.152,-0.619,2.5,1.86,1.34
503969.671000,0.717,-0.135,-0.691,-3.81,-8.33,-2.01
503969.718000,0.688,-0.119,-0.623,0.58,6.1,-1.56
503969.765000,0.711,-0.115,-0.686,-8.97,-7.57,2.32
503969.812000,0.709,-0.128,-0.688,-3.57,-4.24,5.01
503969.859000,0.693,-0.13,-0.701,-4.49,-4.85,4.73
503969.906000,0.686,-0.139,-0.751,-2.69,-4.09,5.58
503969.953000,0.659,-0.173,-0.774,8.82,2.23,2.5
503970.000000,0.699,-0.193,-0.872,19.56,5.1,-4.73
503970.046000,0.693,-0.174,-0.9,46.6,24.11,-2.14
503970.093000,0.649,-0.189,-0.909,46.27,17.88,-9.86
503970.140000,0.679,-0.212,-0.957,58.57,33.75,-16.33
503970.187000,0.585,-0.115,-0.742,41.6,37.23,-33.78
503970.234000,0.68,-0.17,-0.777,55.21,35.19,-18.52
503970.281000,0.663,-0.181,-0.622,24.78,35.95,-37.23
503970.328000,0.718,-0.293,-0.618,30.3,21.27,-2.99
503970.375000,0.766,-0.265,-0.49,6.32,39.25,-38.3
503970.421000,0.793,-0.203,-0.432,18.46,43.06,-18.74
503970.468000,0.836,-0.195,-0.342,-1.31,42.48,-27.22
503970.515000,0.839,-0.189,-0.213,-11.2,52.77,-18.98
503970.562000,0.888,-0.155,-0.235,-15.75,42.12,-6.44
503970.609000,0.835,-0.258,-0.188,-34.52,38.73,-8.91
503970.656000,0.948,-0.185,-0.237,-27.13,29.66,-6.07
503970.703000,0.964,-0.129,-0.059,-16.3,39.86,2.78
503970.750000,0.98,-0.048,0.003,-1.31,37.45,1.16
503970.796000,0.988,-0.021,-0.015,-21.0,37.48,-3.39
503970.843000,0.961,-0.088,-0.019,-18.04,29.15,10.25
503970.890000,0.967,-0.169,-0.083,-35.62,20.72,9.7
503970.937000,0.896,-0.199,-0.081,-23.83,4.88,8.18
503970.984000,1.01,-0.17,-0.078,-16.45,25.18,-6.16
503971.031000,0.946,-0.103,-0.019,-15.35,3.91,2.08
503971.078000,0.95,-0.164,-0.052,-8.0,-9.13,13.21
503971.125000,0.932,-0.138,-0.092,-6.04,1.19,-4.27
503971.187000,0.994,-0.144,-0.178,5.4,-11.72,1.19
503971.234000,0.94,-0.099,-0.117,2.62,-2.99,-4.0
503971.281000,1.01,-0.151,-0.205,5.34,-7.05,3.66
503971.328000,0.939,-0.118,-0.181,8.88,-0.21,1.07
503971.375000,0.957,-0.166,-0.188,9.86,0.4,1.46
503971.421000,0.953,-0.137,-0.18,8.76,0.27,-4.67
503971.468000,0.966,-0.118,-0.187,5.77,0.85,3.2
503971.515000,0.931,-0.139,-0.206,3.02,-0.92,-0.15
503971.562000,0.955,-0.138,-0.17,-1.04,1.46,2.35
503971.609000,0.966,-0.135,-0.183,2.62,-2.84,4.97
503971.656000,0.943,-0.166,-0.202,2.17,-2.47,4.12
503971.703000,0.963,-0.137,-0.18,2.9,-0.15,-1.86
503971.750000,0.936,-0.142,-0.195,0.67,-4.85,2.14
503971.796000,0.95,-0.163,-0.209,0.55,-4.43,1.46
503971.843000,0.942,-0.158,-0.197,4.76,-0.7,-0.06
503971.890000,0.96,-0.151,-0.217,4.36,-0.09,3.23
503971.937000,0.962,-0.182,-0.221,2.23,1.65,1.83
503971.984000,0.964,-0.162,-0.189,2.99,5.98,0.52
503972.031000,0.955,-0.161,-0.189,0.21,3.51,0.12
503972.078000,0.942,-0.143,-0.161,3.75,8.18,-1.16
503972.125000,0.938,-0.164,-0.169,-0.79,0.76,1.83
503972.171000,0.939,-0.128,-0.088,0.55,7.69,0.79
503972.218000,0.944,-0.19,-0.02,3.81,-8.42,4.88
503972.265000,0.972,-0.201,0.11,12.36,-9.43,-1.59
503972.312000,0.993,-0.24,0.182,36.38,-17.82,15.87
503972.359000,0.911,-0.266,0.351,67.32,-4.0,14.25
503972.406000,0.9,-0.358,0.313,29.27,-47.49,6.1
503972.453000,1.07,-0.244,0.116,71.66,-44.83,-0.43
503972.500000,1.0,-0.281,-0.036,-9.86,-74.1,3.6
503972.546000,1.098,-0.23,-0.25,60.79,-24.96,21.3
503972.593000,0.846,0.054,-0.157,-46.21,-1.68,-32.14
503972.640000,0.736,-0.149,-0.323,-25.33,-74.56,51.7
503972.703000,0.523,-0.119,-0.596,-85.24,-46.78,0.95
503972.750000,0.671,-0.3,-0.914,-63.36,-97.35,37.02
503972.796000,0.645,-0.076,-0.806,-56.64,-33.97,-6.29
503972.843000,0.486,-0.04,-0.755,-69.83,-61.95,14.47
503972.890000,0.668,-0.081,-1.09,-72.15,-65.16,15.2
503972.937000,0.712,-0.078,-0.895,-31.68,-38.42,11.81
503972.984000,0.684,-0.149,-0.96,-35.8,-40.25,22.49
503973.031000,0.701,-0.118,-0.864,-11.84,-8.82,-6.47
503973.078000,0.697,-0.135,-0.785,8.33,-8.88,7.26
503973.125000,0.698,-0.036,-0.768,13.46,17.55,-18.16
503973.171000,0.665,-0.046,-0.646,6.99,-4.88,-4.43
503973.218000,0.656,-0.013,-0.659,8.58,3.94,0.24
503973.265000,0.728,-0.076,-0.762,-0.18,-8.15,1.53
503973.312000,0.641,-0.048,-0.66,9.25,-0.43,8.33
503973.359000,0.699,-0.067,-0.739,-7.97,-17.21,4.3
503973.406000,0.672,-0.054,-0.681,4.52,6.44,3.63
503973.453000,0.685,-0.118,-0.776,4.27,-10.65,11.47
503973.500000,0.667,-0.121,-0.667,4.58,8.3,0.0
503973.546000,0.68,-0.14,-0.73,4.76,-2.47,9.8
503973.593000,0.669,-0.165,-0.71,4.03,7.08,-2.01
503973.640000,0.661,-0.162,-0.656,5.98,4.79,-1.13
503973.687000,0.666,-0.153,-0.672,6.07,6.07,-2.38
503973.734000,0.691,-0.134,-0.663,1.53,4.49,-6.99
503973.781000,0.704,-0.113,-0.684,2.66,2.35,-2.96
503973.828000,0.669,-0.116,-0.631,-7.35,-1.4,-0.7
503973.875000,0.711,-0.127,-0.715,-3.11,-7.48,5.22
503973.921000,0.649,-0.137,-0.657,-5.95,1.28,2.23
503973.968000,0.683,-0.13,-0.732,-3.66,-2.26,1.37
503974.015000,0.657,-0.125,-0.657,-3.23,0.09,1.1
503974.062000,0.674,-0.11,-0.733,-3.3,-4.88,3.23
503974.109000,0.666,-0.117,-0.7,-1.07,2.14,0.52
503974.156000,0.656,-0.104,-0.737,-0.92,-4.64,5.1
503974.203000,0.657,-0.167,-0.821,5.89,-0.61,5.34
503974.250000,0.674,-0.172,-0.885,15.99,-1.34,6.59
503974.296000,0.603,-0.205,-0.911,29.88,9.8,-0.18
503974.343000,0.6,-0.197,-1.038,41.84,11.78,-7.57
503974.390000,0.549,-0.091,-0.989,50.33,38.09,-33.91
503974.437000,0.647,-0.187,-0.95,75.69,44.37,-18.4
503974.484000,0.608,-0.051,-0.772,34.39,51.82,-45.87
503974.531000,0.708,-0.184,-0.546,54.63,53.25,-19.65
503974.578000,0.8,-0.207,-0.558,22.28,51.94,-25.94
503974.625000,0.793,-0.249,-0.413,22.37,51.52,-20.81
503974.671000,0.819,-0.24,-0.354,3.39,39.77,-26.43
503974.718000,0.864,-0.193,-0.34,-0.55,38.85,-21.58
503974.765000,0.831,-0.12,-0.208,-18.62,47.61,-17.03
503974.812000,0.873,-0.133,-0.194,-17.55,39.92,0.95
503974.859000,0.908,-0.184,-0.157,-36.38,44.8,1.71
503974.906000,0.924,-0.189,-0.158,-42.12,47.27,17.3
503974.953000,0.913,-0.184,-0.061,-27.74,43.52,28.29
503975.000000,0.943,-0.109,0.025,-26.64,42.63,17.0
503975.046000,1.003,-0.113,0.096,-30.15,28.41,16.85
503975.093000,0.96,-0.188,0.177,-40.35,31.37,13.46
503975.140000,0.914,-0.287,-0.013,-35.98,-19.59,26.43
503975.187000,0.91,-0.226,-0.054,-22.89,7.78,-11.93
503975.234000,0.968,-0.176,-0.095,-5.28,-16.11,-1.5
503975.281000,0.974,-0.203,-0.153,0.15,3.69,-0.52
503975.328000,0.978,-0.191,-0.188,2.56,-8.45,1.56
503975.375000,0.958,-0.207,-0.149,5.83,5.01,4.46
503975.421000,0.947,-0.193,-0.187,10.68,-0.27,-0.43
503975.468000,0.905,-0.195,-0.129,4.88,-0.12,-4.91
503975.515000,0.966,-0.204,-0.237,9.09,-6.81,-4.64
503975.562000,0.949,-0.164,-0.211,5.83,-7.42,-6.38
503975.609000,0.961,-0.177,-0.229,9.98,-1.98,-0.79
503975.656000,0.927,-0.173,-0.21,7.32,-0.67,-2.99
503975.703000,0.945,-0.179,-0.225,7.14,6.53,-3.45
503975.750000,0.94,-0.148,-0.189,6.29,1.92,0.98
503975.796000,0.924,-0.183,-0.181,-1.31,-2.26,-0.95
503975.843000,0.946,-0.19,-0.205,7.42,-4.15,2.62
503975.890000,0.929,-0.184,-0.206,1.22,-4.06,0.15
503975.937000,0.962,-0.177,-0.22,1.92,-2.75,0.61
503975.984000,0.955,-0.217,-0.229,4.58,1.34,2.2
503976.031000,0.955,-0.191,-0.213,5.4,0.12,-2.14
503976.078000,0.941,-0.175,-0.215,2.11,3.6,2.38
503976.125000,0.934,-0.207,-0.203,1.62,9.16,-0.37
503976.171000,0.916,-0.15,-0.183,3.27,3.63,-3.81
503976.218000,0.929,-0.164,-0.178,-0.18,0.98,0.34
503976.265000,0.923,-0.194,-0.158,1.34,-3.27,2.66
503976.312000,0.95,-0.177,-0.162,2.14,-1.74,-0.15
503976.359000,0.954,-0.16,-0.061,3.6,-9.77,3.78
503976.406000,1.01,-0.216,-0.088,15.08,-7.42,4.85
503976.453000,0.963,-0.246,-0.056,23.96,-6.04,-3.23
503976.500000,0.978,-0.29,-0.038,51.52,-3.78,7.63
503976.546000,0.947,-0.136,0.172,54.05,-0.09,-18.31
503976.593000,0.981,-0.16,0.179,52.13,-18.86,8.48
503976.640000,0.928,-0.209,0.287,36.01,-13.34,-2.2
503976.687000,0.933,-0.233,0.224,13.34,-35.43,9.77
503976.734000,0.958,-0.175,0.132,-23.8,-15.47,-5.74
503976.781000,0.85,-0.323,-0.115,-33.2,-55.09,29.18
503976.828000,0.873,-0.186,-0.165,-35.98,-27.74,-8.0
503976.875000,0.807,-0.314,-0.662,-63.63,-60.95,28.81
503976.921000,0.659,-0.262,-0.753,-23.65,19.35,-29.76
503976.968000,0.612,0.058,-0.637,-81.76,-80.39,-32.62
503977.015000,0.909,-0.07,-1.134,-43.95,-85.3,40.38
503977.062000,0.646,-0.083,-0.879,-91.49,-98.82,9.06
503977.109000,0.779,-0.28,-1.122,-44.4,-51.55,21.94
503977.156000,0.734,-0.119,-0.811,-26.55,-8.33,-25.42
503977.203000,0.664,-0.068,-0.623,18.95,4.15,8.51
503977.250000,0.691,-0.053,-0.711,2.93,-0.06,-20.26
503977.296000,0.702,-0.06,-0.634,18.71,-21.79,23.77
503977.343000,0.73,-0.094,-0.715,-1.04,-7.81,-2.66
503977.406000,0.786,-0.059,-0.71,-1.89,-5.04,-5.86
503977.453000,0.802,-0.096,-0.628,11.11,3.45,7.72
503977.500000,0.75,-0.087,-0.681,-5.28,-9.49,8.12
503977.546000,0.767,-0.16,-0.596,5.65,12.02,-2.04
503977.593000,0.771,-0.108,-0.693,4.73,7.78,-1.89
503977.640000,0.71,-0.147,-0.571,7.75,2.01,6.1
503977.687000,0.722,-0.167,-0.642,5.83,2.01,-2.11
503977.734000,0.731,-0.17,-0.564,3.78,-1.13,2.17
503977.781000,0.737,-0.196,-0.638,5.22,2.69,0.03
503977.828000,0.728,-0.172,-0.589,0.7,-5.19,1.16
503977.875000,0.761,-0.162,-0.647,1.59,-0.27,-0.58
503977.921000,0.713,-0.168,-0.603,0.64,-3.3,0.79
503977.968000,0.753,-0.164,-0.61,-1.01,-2.38,-4.0
503978.015000,0.716,-0.153,-0.662,-1.5,-4.43,-1.86
503978.062000,0.713,-0.144,-0.619,0.49,-4.97,1.98
503978.109000,0.769,-0.148,-0.693,4.52,-2.96,1.92
503978.156000,0.704,-0.135,-0.618,-3.39,-0.15,-2.11
503978.203000,0.772,-0.144,-0.676,-2.38,-8.03,2.62
503978.250000,0.706,-0.16,-0.604,-0.82,-0.4,2.9
503978.296000,0.742,-0.134,-0.69,-6.5,-4.12,-3.2
503978.343000,0.733,-0.158,-0.628,1.83,0.52,2.17
503978.390000,0.722,-0.14,-0.654,-4.61,-2.93,-1.59
503978.437000,0.734,-0.146,-0.642,-0.4,0.55,0.61
503978.484000,0.696,-0.161,-0.685,0.06,0.18,2.96
503978.531000,0.675,-0.211,-0.765,2.87,0.67,-5.37
503978.578000,0.732,-0.183,-0.847,16.72,11.87,-7.23
503978.625000,0.619,-0.26,-0.924,36.41,-2.53,0.34
503978.671000,0.767,-0.15,-1.045,50.2,40.38,-36.62
503978.718000,0.689,-0.089,-0.882,58.96,52.1,-31.98
503978.765000,0.677,-0.042,-0.816,51.06,42.76,-36.19
503978.828000,0.606,-0.031,-0.643,-3.54,18.52,-32.72
503978.875000,0.794,-0.137,-0.665,34.12,30.21,-30.79
503978.921000,0.703,-0.117,-0.455,7.97,29.85,-27.71
503978.968000,0.797,-0.183,-0.463,14.95,28.66,-21.0
503979.015000,0.845,-0.123,-0.303,-19.71,20.39,-20.42
503979.062000,0.952,-0.112,-0.366,10.28,32.81,-14.56
503979.109000,0.848,0.0,-0.249,-26.73,35.19,-30.43
503979.156000,0.929,-0.082,-0.29,-22.49,30.3,6.32
503979.203000,0.96,-0.084,-0.266,-27.13,32.81,4.64
503979.250000,0.956,-0.176,-0.333,-17.4,33.6,30.03
503979.296000,0.979,-0.146,-0.184,-14.98,58.66,-1.89
503979.343000,0.973,-0.125,0.004,-14.31,55.7,14.16
503979.406000,0.883,-0.003,0.117,-9.28,47.79,-10.77
503979.453000,0.933,0.082,0.222,-19.62,0.4,4.85
503979.500000,0.956,-0.068,-0.069,-46.27,-10.07,18.19
503979.546000,1.046,-0.135,-0.109,-18.16,-17.09,16.39
503979.593000,1.001,-0.125,-0.119,-17.3,9.46,7.35
503979.640000,0.99,-0.108,-0.117,5.71,-0.03,7.42
503979.687000,0.93,-0.085,-0.105,-1.19,-3.05,3.81
503979.750000,0.988,-0.122,-0.19,11.93,-6.87,-5.31
503979.796000,0.972,-0.084,-0.196,14.89,0.64,-2.32
503979.843000,0.976,-0.089,-0.207,11.02,-5.55,-9.0
503979.890000,0.967,-0.1,-0.207,11.35,5.31,-2.26
503979.937000,0.951,-0.116,-0.158,12.05,-1.22,-5.52
503979.984000,0.935,-0.057,-0.186,8.03,3.05,-6.07
503980.031000,0.942,-0.069,-0.2,9.8,-7.51,3.36
503980.078000,0.933,-0.076,-0.223,6.26,-2.38,0.37
503980.125000,0.95,-0.107,-0.188,6.93,-1.65,3.42
503980.171000,0.944,-0.111,-0.245,6.78,-4.55,0.46
503980.218000,0.948,-0.085,-0.179,4.03,-0.37,1.31
503980.265000,0.952,-0.083,-0.274,3.51,-2.44,5.83
503980.312000,0.937,-0.105,-0.16,-0.49,-1.62,6.9
503980.359000,0.949,-0.139,-0.244,3.57,-8.67,8.7
503980.406000,0.95,-0.119,-0.18,-0.85,3.11,1.04
503980.468000,0.965,-0.131,-0.248,2.62,-2.26,3.75
503980.531000,0.965,-0.132,-0.205,2.23,-4.61,5.16
503980.578000,0.964,-0.131,-0.234,-1.22,4.12,-1.01
503980.625000,0.951,-0.13,-0.186,-0.24,0.79,-0.03
503980.671000,0.963,-0.135,-0.232,1.28,-0.46,2.69
503980.718000,0.936,-0.12,-0.194,0.98,1.34,0.55
503980.765000,0.938,-0.125,-0.213,-0.4,-4.21,4.27
503980.812000,0.942,-0.141,-0.221,-0.73,-7.2,0.15
503980.859000,0.963,-0.143,-0.237,2.17,-4.88,1.01
503980.906000,0.964,-0.141,-0.24,0.4,-4.79,-1.68
503980.953000,0.951,-0.141,-0.237,3.72,1.19,-0.18
503981.000000,0.929,-0.134,-0.227,3.39,-0.03,-1.98
503981.046000,0.942,-0.129,-0.229,1.1,-3.78,-2.44
