t_monotonic,ax,ay,az,gx,gy,gz
575184.453000,-0.153,-0.357,0.77,-8.21,-50.6,-38.27
575184.500000,-0.113,-0.223,0.742,-5.34,-36.65,-50.66
575184.546000,-0.021,-0.316,0.67,-22.31,-26.98,-32.5
575184.593000,-0.015,-0.339,0.714,-32.69,-6.04,-24.84
575184.640000,-0.035,-0.471,0.81,1.19,12.85,15.41
575184.687000,-0.072,-0.6,0.885,-12.73,11.84,17.15
575184.734000,-0.052,-0.647,0.884,-14.31,9.43,10.59
575184.781000,-0.028,-0.604,0.835,-3.45,1.59,5.34
575184.828000,-0.021,-0.618,0.836,-5.92,7.69,7.75
575184.875000,-0.046,-0.597,0.854,-11.08,5.8,3.17
575184.921000,-0.096,-0.551,0.891,-14.13,3.97,3.05
575184.968000,-0.169,-0.533,0.888,-25.61,-4.58,4.06
575185.015000,-0.215,-0.513,0.893,-34.18,-11.32,10.28
575185.062000,-0.188,-0.526,0.871,-55.18,-32.78,12.88
575185.109000,-0.083,-0.576,0.792,-49.53,-46.72,17.37
575185.156000,-0.07,-0.711,0.807,-59.39,-32.72,12.57
575185.203000,-0.081,-0.765,0.777,-41.23,-24.45,-1.31
575185.250000,-0.049,-0.801,0.757,-49.99,-25.36,-18.56
575185.296000,0.052,-0.704,0.654,-28.47,-34.79,-30.73
575185.343000,0.152,-0.696,0.585,-20.11,-17.64,-12.79
575185.390000,0.171,-0.739,0.613,-2.29,2.99,9.86
575185.437000,0.173,-0.956,0.619,7.29,10.01,43.61
575185.484000,0.149,-1.022,0.685,-3.6,11.41,29.97
575185.531000,0.118,-0.985,0.703,-1.62,-17.49,15.08
575185.578000,0.153,-0.892,0.523,-18.65,-40.19,-1.22
575185.625000,0.158,-0.871,0.498,-23.87,-35.25,-12.39
575185.671000,0.165,-0.834,0.496,-8.15,-34.88,-9.55
575185.718000,0.17,-0.815,0.496,-5.55,-21.85,-8.97
575185.765000,0.184,-0.785,0.524,7.75,-14.04,-12.05
575185.812000,0.189,-0.817,0.551,6.74,-2.26,-7.2
575185.859000,0.167,-0.754,0.619,11.41,-13.67,-22.98
575185.906000,0.169,-0.719,0.569,8.55,-16.33,-11.87
575185.953000,0.141,-0.768,0.611,2.35,-13.98,-4.55
575186.000000,0.168,-0.772,0.603,19.71,-29.24,-3.2
575186.046000,0.18,-0.772,0.589,2.62,-22.22,-2.72
575186.093000,0.18,-0.77,0.639,-3.08,-15.87,-7.87
575186.140000,0.189,-0.791,0.674,-4.3,-12.02,-3.91
575186.187000,0.196,-0.821,0.737,4.43,-3.6,-6.62
575186.234000,0.195,-0.828,0.749,-9.06,-11.47,-14.71
575186.281000,0.215,-0.831,0.726,-13.55,-21.3,-18.74
575186.328000,0.268,-0.785,0.656,-31.53,-37.6,-31.77
575186.375000,0.34,-0.806,0.642,-48.68,-43.0,-32.11
575186.421000,0.375,-0.755,0.629,-33.54,-38.09,-33.23
575186.468000,0.417,-0.695,0.549,-14.22,-54.23,-34.39
575186.515000,0.528,-0.542,0.337,21.79,-63.45,-31.89
575186.562000,0.535,-0.415,0.185,40.31,-37.63,-10.77
575186.609000,0.42,-0.546,0.265,39.98,45.01,26.49
575186.656000,0.221,-0.621,0.788,20.63,58.84,19.87
575186.703000,0.132,-0.338,0.6,-13.0,-115.85,1.31
575186.750000,0.162,-0.625,0.39,-47.61,-59.76,122.35
575186.796000,0.226,-1.051,0.071,-139.13,-65.74,115.48
575186.843000,0.383,-1.444,-0.271,-152.17,-55.76,57.31
575186.890000,0.419,-1.286,-0.373,-35.13,-37.51,33.85
575186.937000,0.457,-1.224,-0.363,23.16,12.54,22.64
575186.984000,0.39,-1.086,-0.11,42.33,73.58,15.23
575187.031000,0.317,-1.123,0.071,44.1,100.77,9.58
575187.078000,0.224,-1.076,0.234,54.87,100.65,-21.58
575187.125000,0.226,-0.998,0.331,38.0,82.86,-49.23
575187.171000,0.247,-0.894,0.361,14.44,61.71,-74.68
575187.218000,0.261,-0.808,0.43,4.52,61.62,-78.95
575187.265000,0.28,-0.69,0.502,5.07,44.8,-57.19
575187.312000,0.278,-0.638,0.518,1.13,18.31,-32.17
575187.359000,0.301,-0.647,0.45,-4.36,-3.05,-16.45
575187.406000,0.308,-0.681,0.442,-7.2,-4.12,2.26
575187.453000,0.261,-0.706,0.459,18.89,12.82,18.49
575187.500000,0.215,-0.775,0.483,12.15,24.93,34.7
575187.546000,0.219,-0.927,0.522,1.56,23.47,42.88
575187.593000,0.234,-0.927,0.487,8.94,14.37,34.85
575187.640000,0.198,-0.8,0.512,6.65,23.29,38.88
575187.687000,0.227,-0.88,0.463,-7.2,-6.71,41.26
575187.734000,0.175,-0.785,0.464,-10.53,15.35,39.49
575187.781000,0.12,-0.913,0.472,-15.69,11.54,54.08
575187.828000,0.143,-1.097,0.418,0.82,1.68,43.52
575187.875000,0.172,-1.131,0.307,-14.65,-0.27,21.82
575187.921000,0.158,-1.189,0.292,-7.11,15.5,3.14
575187.968000,0.138,-1.123,0.318,-3.45,22.1,-15.66
575188.015000,0.13,-0.999,0.362,-9.49,23.1,-35.4
575188.062000,0.074,-0.792,0.514,-13.09,25.79,-35.07
575188.109000,0.02,-0.728,0.62,1.25,20.54,-15.32
575188.156000,-0.016,-0.665,0.665,23.1,-3.08,7.57
575188.203000,-0.046,-0.643,0.681,50.51,-23.68,37.17
575188.250000,-0.065,-0.629,0.641,69.95,-42.09,81.12
575188.296000,0.03,-0.634,0.533,82.67,-76.94,92.75
575188.343000,-0.092,-0.615,0.55,205.6,-93.78,167.27
575188.390000,-0.101,-0.662,0.43,369.4,37.54,246.96
575188.437000,-0.219,-0.594,0.55,244.7,107.79,174.2
575188.484000,-0.588,-0.567,1.069,-36.87,101.23,25.3
575188.531000,-0.661,-0.482,0.948,-10.5,48.28,50.05
575188.578000,-0.597,-0.67,0.891,5.49,52.83,50.33
575188.625000,-0.577,-0.613,0.898,-54.38,8.58,-3.36
575188.671000,-0.514,-0.558,0.86,4.79,24.51,18.98
575188.734000,-0.536,-0.559,0.872,-10.32,4.94,-2.53
575188.781000,-0.507,-0.506,0.884,-3.27,-5.4,-13.82
575188.828000,-0.484,-0.441,0.822,-3.72,-26.76,-40.04
575188.875000,-0.448,-0.354,0.782,-31.16,-19.93,-52.31
575188.921000,-0.421,-0.332,0.741,-98.73,-57.16,-57.65
575188.968000,-0.429,-0.42,0.868,-140.93,-27.07,-34.64
575189.015000,-0.386,-0.556,0.867,-133.52,-61.22,-23.47
575189.062000,-0.273,-0.771,0.778,-152.71,-72.63,-21.0
575189.109000,-0.213,-0.857,0.735,-101.96,-74.71,-8.51
575189.156000,-0.095,-0.846,0.543,7.23,-69.46,7.02
575189.203000,-0.049,-0.798,0.419,21.24,-43.76,12.82
575189.250000,-0.203,-0.952,0.666,2.38,-26.7,7.29
575189.312000,-0.308,-1.02,0.782,-53.29,-151.04,-41.05
575189.359000,0.005,-0.798,0.376,-36.84,-139.68,-38.79
575189.406000,0.181,-0.619,0.139,-14.98,-79.07,-20.6
575189.453000,0.275,-0.625,0.063,21.49,18.74,-6.07
575189.500000,0.056,-0.673,0.295,108.4,130.25,37.87
575189.546000,-0.142,-0.743,0.564,139.38,187.84,51.3
575189.593000,-0.394,-0.624,0.951,99.15,140.72,38.45
575189.640000,-0.436,-0.575,0.905,-2.35,26.15,13.06
575189.687000,-0.304,-0.6,0.801,-15.14,-13.06,19.93
575189.734000,-0.201,-0.666,0.673,-22.43,-17.0,26.55
575189.781000,-0.161,-0.745,0.695,-38.67,-0.64,3.11
575189.828000,-0.227,-0.753,0.735,-48.71,10.9,-2.56
575189.875000,-0.267,-0.775,0.8,2.08,15.53,18.59
575189.921000,-0.265,-0.729,0.708,5.89,-4.85,14.16
575189.968000,-0.265,-0.756,0.689,-6.01,0.92,11.75
575190.015000,-0.271,-0.78,0.696,6.87,-3.14,15.05
575190.062000,-0.296,-0.785,0.669,-0.21,-7.84,6.68
575190.109000,-0.294,-0.753,0.659,-9.52,-14.28,-6.04
575190.156000,-0.266,-0.767,0.61,-15.78,-16.39,-6.32
575190.203000,-0.247,-0.773,0.604,-20.63,-12.54,-12.05
575190.250000,-0.23,-0.786,0.605,-7.57,-8.12,-7.2
575190.296000,-0.207,-0.775,0.587,-1.16,1.22,-12.21
575190.343000,-0.218,-0.728,0.636,-0.46,6.53,-15.2
575190.390000,-0.218,-0.679,0.622,-3.42,7.93,-12.27
575190.437000,-0.251,-0.681,0.682,-3.54,14.98,-0.43
575190.484000,-0.259,-0.678,0.694,3.27,8.39,9.64
575190.531000,-0.25,-0.733,0.669,1.22,6.62,16.6
575190.578000,-0.249,-0.773,0.673,-2.29,3.45,13.76
575190.625000,-0.25,-0.805,0.647,0.4,-2.32,10.56
575190.671000,-0.254,-0.812,0.635,-1.77,-5.65,5.71
575190.718000,-0.24,-0.813,0.593,-3.45,-9.03,0.27
575190.765000,-0.222,-0.766,0.565,-4.79,0.92,-6.1
575190.812000,-0.246,-0.742,0.608,4.39,8.55,-2.04
575190.875000,-0.291,-0.746,0.668,1.98,11.08,0.52
575190.921000,-0.29,-0.751,0.679,-0.43,4.55,-2.29
575190.968000,-0.272,-0.768,0.638,-2.99,2.5,-2.08
575191.015000,-0.26,-0.781,0.635,3.63,3.6,-2.04
575191.062000,-0.256,-0.787,0.606,-0.76,5.07,-3.88
575191.109000,-0.247,-0.786,0.598,1.13,4.91,-5.68
575191.156000,-0.254,-0.794,0.612,0.12,9.86,-9.64
575191.203000,-0.268,-0.774,0.632,-2.29,7.51,-11.96
575191.250000,-0.242,-0.807,0.622,3.23,5.13,-12.05
575191.296000,-0.231,-0.783,0.595,1.19,4.33,-18.62
575191.343000,-0.23,-0.748,0.613,6.2,8.7,-17.91
575191.390000,-0.251,-0.71,0.645,3.94,9.92,-14.5
575191.437000,-0.25,-0.678,0.648,1.5,5.28,-12.51
575191.484000,-0.252,-0.622,0.651,-6.74,0.55,2.01
575191.531000,-0.251,-0.623,0.632,-10.13,-3.75,15.44
575191.578000,-0.283,-0.686,0.633,-13.52,-6.29,33.66
575191.625000,-0.304,-0.95,0.815,50.97,-10.77,26.22
575191.671000,-0.268,-0.813,0.645,54.05,-30.21,26.4
575191.718000,-0.232,-0.765,0.612,7.84,-13.79,2.14
575191.765000,-0.23,-0.707,0.614,-13.67,-6.41,0.4
575191.812000,-0.269,-0.723,0.66,1.28,-0.52,13.31
575191.859000,-0.262,-0.785,0.649,-6.74,-1.68,9.4
575191.906000,-0.271,-0.768,0.681,-9.89,-0.09,-0.82
575191.953000,-0.275,-0.753,0.668,-4.82,-2.04,0.15
575192.000000,-0.287,-0.749,0.684,-1.74,-3.63,-5.46
575192.046000,-0.262,-0.763,0.651,10.8,-4.12,-4.67
575192.093000,-0.24,-0.733,0.648,9.86,-5.28,-12.3
575192.140000,-0.217,-0.702,0.64,9.13,-1.77,-11.6
575192.187000,-0.222,-0.668,0.649,2.84,-0.34,-9.4
575192.234000,-0.234,-0.701,0.673,-1.74,6.81,-2.14
575192.281000,-0.279,-0.709,0.744,-2.35,5.01,-2.84
575192.328000,-0.277,-0.727,0.74,2.59,-3.6,1.59
575192.375000,-0.262,-0.712,0.707,2.29,-7.39,-1.77
575192.421000,-0.228,-0.673,0.65,0.46,-10.59,-1.34
575192.468000,-0.216,-0.651,0.624,-0.98,-2.9,5.13
575192.515000,-0.227,-0.716,0.675,3.75,4.46,11.66
575192.562000,-0.236,-0.742,0.703,2.53,0.95,5.37
575192.609000,-0.222,-0.736,0.693,-0.27,2.99,1.37
575192.656000,-0.238,-0.738,0.693,6.38,4.06,-0.09
575192.703000,-0.262,-0.761,0.72,1.01,6.71,-1.53
575192.750000,-0.273,-0.735,0.732,5.04,-0.89,-7.17
575192.796000,-0.236,-0.707,0.693,-3.39,-5.46,-9.16
575192.843000,-0.223,-0.713,0.7,-2.17,0.15,-9.77
575192.890000,-0.204,-0.703,0.717,-6.44,1.19,-6.13
575192.937000,-0.177,-0.669,0.629,-7.05,14.01,3.3
575192.984000,-0.226,-0.681,0.678,0.43,9.06,-1.34
575193.031000,-0.232,-0.685,0.632,1.92,3.97,1.37
575193.078000,-0.262,-0.732,0.678,7.02,5.58,3.27
575193.125000,-0.285,-0.739,0.691,12.3,-0.49,6.81
575193.171000,-0.259,-0.71,0.677,32.62,-2.75,11.11
575193.218000,-0.251,-0.684,0.674,44.01,-5.01,17.24
575193.265000,-0.235,-0.673,0.682,55.18,-0.79,15.35
575193.312000,-0.267,-0.641,0.741,37.97,14.31,7.29
575193.359000,-0.288,-0.596,0.79,28.47,6.29,0.43
575193.406000,-0.306,-0.577,0.833,27.92,3.81,4.0
575193.453000,-0.308,-0.582,0.858,24.17,1.07,-1.8
575193.500000,-0.304,-0.536,0.83,11.11,-5.07,-9.52
575193.546000,-0.282,-0.541,0.816,4.06,-3.45,-6.13
575193.593000,-0.267,-0.548,0.776,-9.95,0.79,-6.29
575193.640000,-0.283,-0.578,0.826,-4.12,11.41,-7.17
575193.687000,-0.274,-0.578,0.776,-3.69,6.99,-9.09
575193.734000,-0.268,-0.538,0.75,-8.36,17.21,-10.56
575193.781000,-0.305,-0.541,0.78,1.4,23.96,3.17
575193.828000,-0.324,-0.541,0.804,-2.26,18.98,6.29
575193.875000,-0.333,-0.587,0.792,2.96,15.84,0.49
575193.921000,-0.339,-0.545,0.788,3.14,11.75,-2.59
575193.968000,-0.325,-0.55,0.753,-0.12,14.5,-1.98
575194.015000,-0.333,-0.562,0.766,0.4,13.25,1.4
575194.062000,-0.362,-0.57,0.82,-0.34,15.08,1.43
575194.109000,-0.356,-0.563,0.792,3.27,-2.56,5.58
575194.156000,-0.361,-0.55,0.795,5.28,-2.81,5.65
575194.218000,-0.372,-0.555,0.837,17.82,-20.45,9.64
575194.265000,-0.347,-0.523,0.805,15.93,-25.54,9.09
575194.312000,-0.332,-0.514,0.814,10.83,-28.5,8.73
575194.359000,-0.286,-0.514,0.757,-2.2,-10.53,8.06
575194.406000,-0.302,-0.556,0.816,-7.72,0.76,4.55
575194.453000,-0.31,-0.559,0.821,-2.17,0.31,2.72
575194.500000,-0.312,-0.563,0.82,-2.78,1.71,-0.85
575194.546000,-0.305,-0.558,0.799,1.46,5.77,-5.62
575194.593000,-0.314,-0.577,0.821,-0.12,10.1,-7.54
575194.640000,-0.306,-0.581,0.793,2.78,13.06,-15.38
575194.687000,-0.302,-0.566,0.754,-4.27,18.16,-20.23
575194.734000,-0.338,-0.596,0.813,-10.74,29.94,-30.88
575194.781000,-0.356,-0.576,0.768,-9.13,32.65,-35.37
575194.828000,-0.43,-0.568,0.937,-28.84,25.03,-40.16
575194.875000,-0.347,-0.565,0.76,-18.98,-0.37,-27.99
575194.921000,-0.315,-0.594,0.789,-30.0,-12.63,-30.76
575194.968000,-0.269,-0.589,0.727,-9.09,-36.38,-17.46
575195.015000,-0.239,-0.611,0.662,0.15,-12.39,-6.35
575195.062000,-0.274,-0.63,0.725,1.62,-0.89,-9.46
575195.109000,-0.262,-0.607,0.707,2.17,-0.58,-5.19
575195.156000,-0.23,-0.67,0.71,-9.83,2.47,-0.76
575195.203000,-0.23,-0.731,0.71,-6.07,9.49,-0.09
575195.250000,-0.225,-0.789,0.739,-13.34,9.37,-8.76
575195.296000,-0.241,-0.816,0.791,-12.94,5.25,-19.93
575195.343000,-0.205,-0.772,0.762,-24.63,11.38,-31.92
575195.390000,-0.179,-0.738,0.741,-12.18,-3.11,-31.68
575195.437000,-0.169,-0.75,0.724,13.52,-20.11,-25.3
575195.484000,-0.153,-0.748,0.726,-9.37,-12.57,-35.28
575195.531000,-0.162,-0.806,0.727,-31.31,-14.44,-49.38
575195.578000,-0.112,-0.789,0.714,-39.19,-29.45,-58.41
575195.625000,-0.023,-0.769,0.623,-36.5,-18.01,-54.99
575195.671000,0.029,-0.858,0.625,-21.67,2.2,-39.86
575195.734000,0.066,-0.965,0.584,-4.06,-0.61,-56.37
575195.781000,0.062,-1.238,0.559,-86.61,22.86,-128.09
575195.828000,0.097,-1.377,0.469,-171.85,7.08,-218.6
575195.875000,0.167,-1.141,0.38,-209.91,3.51,-296.61
575195.921000,0.306,-0.726,0.31,-196.69,14.68,-316.29
575195.968000,0.428,-0.398,0.261,-123.69,-8.79,-256.08
575196.015000,0.587,-0.215,0.11,-77.91,-24.96,-196.26
575196.062000,0.761,-0.032,-0.074,-123.23,1.13,-143.31
575196.109000,0.827,-0.006,-0.142,-139.1,53.62,-94.97
575196.156000,0.826,-0.153,0.088,-152.47,75.78,-57.28
575196.203000,0.898,-0.256,0.114,-132.3,61.92,-22.61
575196.250000,0.837,-0.493,0.42,-110.93,59.82,-8.12
575196.296000,0.757,-0.558,0.672,-76.17,57.16,-30.4
575196.343000,0.849,-0.243,0.45,-62.2,26.49,-79.1
575196.390000,1.0,0.338,0.24,26.31,-17.18,-96.16
575196.437000,0.989,0.522,0.643,45.66,-70.86,-33.72
575196.484000,0.969,0.324,0.191,-17.98,-101.93,27.28
575196.531000,0.972,0.09,0.078,-45.38,-100.5,28.72
575196.578000,0.961,-0.053,-0.075,-55.42,-85.45,45.96
575196.625000,0.844,-0.159,-0.311,-55.42,-101.08,50.94
575196.687000,0.719,-0.201,-0.619,-55.27,-122.62,12.79
575196.734000,0.527,-0.193,-0.824,-24.81,-125.16,27.89
575196.781000,0.553,-0.388,-0.905,-16.3,-95.28,41.84
575196.828000,0.636,-0.337,-1.239,4.18,-73.18,17.61
575196.875000,0.642,-0.145,-0.579,27.86,19.2,-41.81
575196.937000,0.731,-0.006,-0.511,40.35,-3.75,-28.29
575196.984000,0.825,-0.06,-0.744,53.9,-12.12,-17.12
575197.031000,0.763,-0.158,-0.617,39.22,-9.25,-9.89
575197.093000,0.901,-0.145,-0.764,71.5,-23.59,-27.92
575197.140000,0.918,-0.096,-0.58,41.96,-8.94,-27.65
575197.187000,0.919,-0.032,-0.618,27.99,5.16,-30.06
575197.234000,0.91,-0.023,-0.678,26.83,9.16,-18.22
575197.296000,0.813,-0.106,-0.505,13.15,20.48,-3.85
575197.343000,0.766,-0.163,-0.485,23.93,15.69,3.51
575197.390000,0.684,-0.218,-0.395,43.73,-0.18,15.32
575197.437000,0.737,-0.254,-0.442,29.36,-17.21,-2.81
575197.484000,0.706,-0.276,-0.388,40.19,-15.32,6.62
575197.531000,0.799,-0.288,-0.404,55.27,-17.09,15.96
575197.578000,0.79,-0.295,-0.359,46.14,-2.69,20.48
575197.625000,0.815,-0.342,-0.364,39.43,-2.66,21.39
575197.671000,0.849,-0.384,-0.508,39.0,-20.75,12.94
575197.718000,0.862,-0.396,-0.622,38.09,-4.36,12.76
575197.765000,0.874,-0.396,-0.644,16.97,2.35,-5.22
575197.812000,0.912,-0.319,-0.677,2.08,6.96,-16.24
575197.859000,0.888,-0.337,-0.647,-12.24,30.95,-5.04
575197.906000,0.832,-0.314,-0.548,18.16,47.3,13.34
575197.953000,0.792,-0.308,-0.48,12.85,47.58,16.85
575198.000000,0.818,-0.356,-0.462,-10.01,53.22,7.72
575198.046000,0.813,-0.41,-0.362,-9.16,69.25,15.11
575198.093000,0.844,-0.446,-0.242,-12.54,71.87,10.13
575198.140000,0.868,-0.453,-0.227,-19.01,62.29,-10.93
575198.187000,0.792,-0.339,-0.102,-7.78,57.59,-15.11
575198.234000,0.741,-0.207,-0.017,37.08,47.0,8.24
575198.281000,0.747,-0.197,-0.013,33.72,42.15,30.24
575198.328000,0.748,-0.369,0.07,-13.52,35.89,36.41
575198.375000,0.783,-0.482,0.052,-34.42,23.87,24.87
575198.421000,0.796,-0.508,0.059,-25.36,3.78,19.17
575198.468000,0.884,-0.551,-0.052,-16.51,-10.07,14.8
575198.515000,0.905,-0.502,-0.082,-14.71,-15.47,7.72
575198.562000,0.93,-0.453,-0.154,-4.85,-20.45,1.92
575198.609000,0.978,-0.54,-0.253,-25.09,-7.02,5.8
575198.656000,1.016,-0.592,-0.327,-19.5,3.88,-7.17
575198.703000,1.004,-0.564,-0.333,-33.36,28.05,-27.19
575198.750000,0.978,-0.481,-0.329,-12.05,40.04,-36.77
575198.796000,0.888,-0.434,-0.236,-4.21,66.65,-27.77
575198.843000,0.827,-0.506,-0.084,15.63,79.47,-18.28
575198.890000,0.812,-0.513,-0.025,29.11,77.73,-27.77
575198.953000,0.792,-0.454,0.227,-20.78,77.79,-99.37
575199.000000,0.866,-0.027,0.239,-4.46,75.05,-70.28
575199.046000,0.89,0.11,0.258,29.54,68.94,-48.59
575199.093000,0.851,0.097,0.357,-28.08,67.35,-2.23
575199.140000,0.839,0.005,0.427,-33.54,64.39,16.14
575199.187000,0.815,-0.308,0.458,6.87,47.09,51.94
575199.234000,0.824,-0.4,0.495,3.72,36.13,36.35
575199.281000,0.83,-0.303,0.473,-11.35,20.69,-14.71
575199.328000,0.851,-0.245,0.512,-28.08,-8.42,-45.41
575199.375000,0.89,-0.172,0.406,-29.69,-19.99,-49.29
575199.421000,0.904,-0.034,0.375,-23.83,-28.57,-42.33
575199.484000,0.927,-0.096,0.379,-40.28,-34.64,-49.01
575199.531000,0.942,-0.04,0.296,-24.41,-25.12,-24.41
575199.578000,0.928,-0.113,0.296,-40.59,-11.51,-18.1
575199.625000,0.915,-0.124,0.323,-50.66,-15.9,-24.11
575199.671000,0.915,-0.123,0.388,-58.02,-21.27,-31.19
575199.718000,0.938,-0.138,0.468,-21.76,-50.33,-22.16
575199.765000,1.008,-0.024,0.116,18.34,-65.16,-21.79
575199.812000,0.945,0.009,0.214,40.59,-47.27,-7.6
575199.859000,0.979,0.042,0.048,61.56,-28.17,24.11
575199.906000,0.923,-0.079,0.232,-6.81,2.84,-12.73
575199.953000,0.91,-0.137,0.37,13.18,-33.42,-1.77
575200.000000,0.993,-0.067,-0.104,15.66,-90.37,-13.09
575200.046000,0.951,0.129,-0.181,24.99,-16.66,-15.99
575200.109000,0.902,0.151,-0.142,13.79,-12.82,24.93
575200.156000,0.875,0.036,-0.142,29.82,11.41,59.82
575200.203000,0.939,-0.188,0.079,12.57,2.72,57.77
575200.250000,0.915,-0.203,0.267,21.36,7.66,43.98
575200.296000,0.939,-0.262,0.204,14.4,-48.1,39.55
575200.343000,0.944,-0.245,-0.212,13.34,-87.71,21.18
575200.390000,0.924,-0.523,-0.662,26.95,-92.17,55.09
575200.437000,1.105,-0.798,-0.975,3.48,-48.4,24.29
575200.484000,1.025,-0.282,-0.852,41.75,68.21,-80.54
575200.531000,0.926,0.023,-0.183,-0.52,128.06,-47.3
575200.578000,0.912,0.149,0.055,8.0,86.43,-18.4
575200.625000,0.92,0.178,0.201,-1.71,54.14,-35.95
575200.671000,0.908,-0.163,0.085,-24.05,17.61,-22.74
575200.718000,0.913,-0.222,0.052,-15.47,41.87,-33.85
575200.765000,0.825,-0.116,0.397,-40.56,35.98,-31.77
575200.812000,0.789,-0.045,0.504,-33.72,22.0,-3.88
575200.859000,0.796,-0.074,0.692,-16.21,18.49,10.8
575200.906000,1.043,-0.25,0.425,6.68,-39.31,12.27
575200.953000,1.089,-0.146,0.225,24.57,-37.84,-4.97
575201.000000,1.049,0.004,0.204,41.11,1.65,27.16
575201.046000,0.972,-0.096,0.138,39.61,-15.99,48.37
575201.093000,0.865,-0.092,0.03,52.37,-14.4,19.81
575201.140000,0.903,-0.015,0.137,6.84,-14.04,13.79
575201.187000,0.952,-0.143,0.106,24.87,-33.69,35.89
575201.234000,0.937,-0.206,0.107,34.64,-40.1,48.83
575201.281000,0.876,-0.327,0.06,22.28,-50.29,50.05
575201.328000,0.88,-0.356,-0.038,33.05,-65.1,30.67
575201.375000,0.97,-0.237,-0.09,-3.45,-58.47,-8.0
575201.421000,1.014,-0.151,-0.093,8.85,-66.53,4.64
575201.484000,0.992,-0.266,-0.251,12.76,-105.44,27.95
575201.531000,0.847,-0.275,-0.303,7.32,-135.53,42.85
575201.578000,0.698,-0.32,-0.386,9.92,-162.27,68.0
575201.625000,0.74,-0.449,-0.611,23.26,-119.27,50.14
575201.671000,0.709,-0.445,-0.65,20.14,-70.28,51.76
575201.718000,0.756,-0.54,-0.737,10.1,4.7,27.77
575201.765000,0.731,-0.536,-0.734,-18.43,50.33,-3.85
575201.812000,0.821,-0.612,-0.775,-14.77,131.23,-27.04
575201.859000,0.743,-0.411,-0.388,-11.26,135.62,-63.2
575201.906000,0.867,-0.28,-0.356,-1.92,116.89,-24.23
575201.953000,0.879,-0.503,-0.214,-30.67,122.44,-16.69
575202.000000,0.829,-0.634,0.017,-134.8,162.6,-69.83
575202.046000,0.72,-0.716,0.538,-92.78,182.56,-119.36
575202.093000,0.647,-0.149,0.789,35.52,86.03,-146.79
575202.140000,0.858,0.448,0.479,20.33,-17.64,-105.72
575202.187000,0.994,0.671,0.364,-3.66,7.14,-41.02
575202.234000,0.898,0.554,0.665,3.88,2.62,10.35
575202.281000,0.838,0.299,0.549,-46.63,-89.3,70.89
575202.328000,0.786,0.007,0.126,-58.78,-146.0,94.49
575202.375000,0.72,-0.184,-0.383,-99.15,-147.31,58.6
575202.421000,0.77,-0.162,-0.9,-93.91,-110.51,54.14
575202.468000,0.508,-0.0,-0.618,-94.06,-128.7,7.57
575202.515000,0.284,0.057,-0.8,-113.25,-172.0,41.96
575202.562000,0.636,0.012,-1.734,-183.17,-187.96,-6.2
575202.609000,0.822,-0.022,-1.705,-123.45,-48.68,46.02
575202.656000,0.756,-0.628,-0.709,1.07,36.1,90.43
575202.703000,0.649,-0.091,-0.646,12.76,47.27,-66.74
575202.750000,0.589,0.379,-0.534,38.73,15.35,-74.71
575202.796000,0.775,0.196,-0.692,17.18,-2.56,-16.17
575202.843000,0.905,-0.034,-0.905,86.98,8.36,24.51
575202.890000,0.687,-0.2,-1.221,169.01,39.06,60.0
575202.937000,0.668,-0.337,-1.254,198.68,86.61,54.78
575202.984000,0.367,-0.325,-1.215,132.3,104.98,-29.73
575203.031000,0.543,-0.023,-0.826,161.08,130.38,-42.7
575203.078000,0.621,-0.088,-0.062,135.56,124.15,-10.47
575203.125000,0.837,0.001,0.042,107.43,120.06,-5.1
575203.171000,0.874,-0.158,0.269,67.23,125.1,6.01
575203.218000,1.038,-0.172,0.213,57.37,123.05,-18.52
575203.265000,0.961,-0.225,0.504,-8.0,122.81,-36.81
575203.312000,0.757,-0.1,0.815,42.6,103.67,-21.39
575203.359000,0.741,-0.069,0.754,13.4,32.29,-22.58
575203.406000,0.855,-0.089,0.387,-1.65,-12.27,-14.44
575203.453000,0.855,-0.183,0.304,-23.35,-4.88,-15.02
575203.515000,0.791,-0.168,0.415,-16.08,7.93,0.15
575203.562000,0.82,-0.203,0.391,-7.69,-7.93,2.66
575203.609000,0.742,-0.178,0.464,-13.09,-14.04,2.99
575203.656000,0.836,-0.263,0.457,-3.2,-30.09,23.41
575203.703000,0.953,-0.215,0.348,-13.61,-30.58,2.08
575203.750000,0.928,-0.177,0.292,-12.88,-18.46,13.89
575203.812000,1.0,-0.318,0.21,-13.79,-23.56,10.47
575203.859000,0.913,-0.377,0.269,3.39,-3.42,11.02
575203.906000,0.837,-0.302,0.387,-3.23,-7.2,-11.84
575203.953000,0.928,-0.314,0.279,17.09,-32.81,8.09
575204.000000,0.991,-0.247,0.133,22.64,-20.81,12.51
575204.046000,0.935,-0.33,0.214,33.39,-9.28,28.26
575204.093000,0.873,-0.339,0.186,59.82,-1.28,57.44
575204.140000,0.905,-0.445,0.246,65.68,-4.21,65.1
575204.187000,0.925,-0.431,0.211,60.55,3.42,41.51
575204.234000,0.856,-0.408,0.327,60.95,0.49,41.44
575204.296000,0.804,-0.418,0.383,45.08,8.21,51.36
575204.343000,0.85,-0.419,0.269,78.1,-3.23,57.22
575204.390000,0.781,-0.452,0.32,69.31,13.67,77.76
575204.437000,0.728,-0.472,0.454,76.6,8.18,79.68
575204.484000,0.721,-0.606,0.486,52.61,-4.55,72.79
575204.531000,0.689,-0.533,0.388,43.95,4.73,45.53
575204.578000,0.686,-0.568,0.477,28.6,0.43,24.51
575204.625000,0.665,-0.547,0.458,2.35,8.27,14.22
575204.671000,0.625,-0.605,0.498,-26.86,-10.62,-23.07
575204.718000,0.782,-0.58,0.344,-108.25,-15.9,-111.3
575204.765000,0.892,-0.631,0.4,-144.47,-39.49,-135.32
575204.812000,0.8,-0.421,0.257,-96.53,-68.85,-129.34
575204.859000,0.871,-0.274,0.168,-106.33,-45.41,-73.0
575204.906000,0.951,-0.404,0.175,-57.68,-65.98,-22.37
575204.953000,1.094,-0.401,-0.384,-58.75,-65.77,-40.04
575205.000000,1.097,-0.384,-0.394,-91.59,-41.08,-63.57
575205.046000,0.971,-0.468,-0.37,-29.45,-44.65,-42.45
575205.093000,0.972,-0.528,-0.391,-14.98,-12.33,-17.18
575205.140000,0.964,-0.63,-0.254,13.09,38.09,-17.82
575205.187000,0.897,-0.238,-0.022,53.56,112.98,-92.35
575205.234000,0.798,0.085,0.256,79.26,146.06,-105.11
575205.281000,0.711,0.349,0.307,-35.4,149.36,-126.07
575205.328000,0.704,0.219,0.703,-87.28,4.97,-36.96
575205.375000,0.804,-0.072,0.422,-68.27,-41.99,5.01
575205.421000,0.881,-0.221,0.334,-90.88,-24.96,-48.1
575205.468000,0.789,-0.083,0.542,-27.68,-51.85,-64.55
575205.515000,0.82,0.021,0.516,-7.45,-70.8,-38.67
575205.562000,0.925,0.077,0.113,15.81,-139.74,-64.88
575205.609000,1.009,0.24,-0.269,-10.5,-83.53,-62.26
575205.656000,0.927,0.466,-0.282,28.66,-14.44,-10.74
575205.703000,0.841,0.451,-0.083,2.53,19.2,43.86
575205.750000,0.876,0.278,0.125,16.17,13.31,102.63
575205.796000,0.843,0.057,0.221,77.06,34.64,159.79
575205.843000,0.655,-0.135,0.43,94.12,77.73,192.82
575205.890000,0.385,-0.118,0.632,101.17,73.55,189.76
575205.937000,0.329,-0.248,0.512,-6.26,-95.71,201.76
575205.984000,0.471,-0.782,-0.047,-22.92,-271.19,170.38
575206.031000,0.415,-0.489,-0.294,60.98,-206.46,126.65
575206.078000,0.307,-0.717,-0.246,-29.45,-156.74,222.97
575206.125000,-0.04,-0.757,-0.269,50.23,-109.99,233.92
575206.171000,-0.111,-1.41,-0.521,44.25,-66.16,281.99
575206.218000,0.22,-2.21,-0.604,17.7,-29.63,170.02
575206.265000,0.242,-1.786,-0.568,-26.73,-9.67,7.11
575206.312000,0.416,-1.859,-0.605,-9.74,18.86,-105.93
575206.359000,0.408,-1.615,-0.688,17.3,53.8,-143.13
575206.406000,0.4,-1.613,-0.783,-78.16,96.01,-237.34
575206.453000,0.325,-1.239,-0.634,-72.88,120.76,-315.68
575206.500000,0.326,-0.475,-0.32,-76.33,131.2,-293.62
575206.546000,0.486,-0.035,-0.098,-23.5,128.88,-214.73
575206.609000,0.585,0.337,0.044,-112.95,103.61,-189.52
575206.656000,0.76,0.129,0.032,-129.92,66.04,-65.68
575206.703000,0.829,-0.331,0.007,-107.3,57.53,12.45
575206.750000,0.764,-0.431,-0.002,-55.91,48.37,27.13
575206.796000,0.642,-0.354,0.244,-10.47,99.43,6.13
575206.843000,0.703,-0.226,0.434,-3.05,67.08,-14.77
575206.890000,0.702,-0.105,0.479,15.9,32.78,-6.5
575206.937000,0.698,-0.081,0.5,38.09,4.49,28.47
575206.984000,0.815,-0.076,0.421,49.1,-55.73,40.38
575207.031000,0.965,-0.212,0.138,41.75,-68.0,37.81
575207.078000,1.037,-0.197,0.014,23.29,-48.92,8.88
575207.125000,1.118,-0.213,-0.003,-3.39,-48.4,0.95
575207.171000,1.075,-0.152,-0.046,31.13,-11.72,6.26
575207.218000,1.001,-0.169,0.038,4.06,-1.16,3.39
575207.265000,0.989,-0.185,0.068,14.68,-3.57,8.45
575207.312000,0.997,-0.221,0.017,0.43,-8.0,4.0
575207.359000,0.988,-0.206,0.001,4.88,-3.3,-5.31
575207.406000,0.97,-0.179,0.036,10.56,4.0,-1.71
575207.453000,0.949,-0.115,0.07,9.89,4.73,-1.13
575207.500000,0.946,-0.143,0.12,25.76,4.88,27.22
575207.546000,0.965,-0.229,0.062,41.38,1.01,36.44
575207.593000,0.963,-0.273,0.071,23.96,6.99,19.84
575207.640000,0.935,-0.222,0.127,51.33,9.28,32.65
575207.687000,0.954,-0.255,0.077,53.59,0.7,43.52
575207.734000,0.944,-0.297,0.051,14.74,7.66,18.52
575207.781000,0.944,-0.335,0.067,-20.66,3.39,-7.51
575207.828000,0.943,-0.333,0.072,-26.46,7.57,-17.58
575207.875000,0.915,-0.266,0.098,-27.59,11.69,-19.38
575207.921000,0.916,-0.252,0.131,-23.53,10.86,-11.51
575207.968000,0.89,-0.258,0.172,-7.48,6.99,5.25
575208.015000,0.906,-0.283,0.17,-9.09,-0.89,9.67
575208.062000,0.912,-0.304,0.156,-5.52,-6.81,8.27
575208.109000,0.953,-0.321,0.088,-6.26,-8.48,4.94
575208.156000,0.966,-0.293,0.109,-5.68,-3.57,-0.55
575208.203000,0.972,-0.291,0.089,-4.52,-6.16,0.52
575208.250000,0.986,-0.304,0.079,2.62,-0.15,2.84
575208.296000,0.967,-0.323,0.099,2.66,5.34,0.43
575208.343000,0.958,-0.311,0.116,1.89,3.85,-3.57
575208.390000,0.961,-0.302,0.128,2.78,1.5,-4.64
575208.437000,0.944,-0.279,0.112,1.22,1.07,-6.47
575208.484000,0.928,-0.272,0.124,5.07,4.15,-3.66
575208.531000,0.903,-0.262,0.162,5.77,3.94,-0.34
575208.578000,0.904,-0.294,0.18,7.97,-3.05,2.53
575208.625000,0.942,-0.3,0.134,8.39,-10.93,-1.37
575208.671000,0.97,-0.273,0.059,6.44,-10.5,-7.11
575208.718000,0.979,-0.264,0.051,2.35,-7.75,-5.95
575208.765000,0.967,-0.243,0.053,3.78,1.43,-4.27
575208.812000,0.937,-0.251,0.091,1.77,4.06,-1.86
575208.859000,0.906,-0.239,0.115,2.72,1.71,0.06
575208.906000,0.914,-0.263,0.109,2.41,-5.13,4.55
575208.953000,0.932,-0.283,0.067,0.03,-7.05,1.4
575209.000000,0.952,-0.255,0.045,-2.38,-3.57,-1.62
575209.046000,0.963,-0.247,0.053,-3.6,2.53,1.86
575209.093000,0.957,-0.252,0.071,-6.29,3.54,2.78
575209.140000,0.946,-0.25,0.11,-9.55,1.74,1.98
575209.187000,0.934,-0.269,0.123,-6.78,1.4,4.88
575209.250000,0.93,-0.287,0.112,-3.23,1.13,5.31
575209.296000,0.936,-0.29,0.101,-1.68,0.46,5.01
575209.343000,0.948,-0.303,0.08,-1.68,0.27,3.45
575209.390000,0.959,-0.294,0.066,-2.99,1.56,-0.55
575209.437000,0.957,-0.286,0.063,-6.32,4.64,-0.92
575209.484000,0.946,-0.268,0.073,-10.44,5.95,-3.69
575209.531000,0.927,-0.248,0.106,-10.07,8.06,-0.03
575209.578000,0.928,-0.267,0.123,-9.25,5.13,4.55
575209.625000,1.012,-0.357,0.038,-34.67,-1.53,-14.07
575209.671000,1.16,-0.593,-0.083,-68.09,-8.48,-37.66
575209.718000,1.149,-0.588,-0.15,-63.48,14.59,-90.27
575209.765000,0.864,0.147,0.07,-37.23,88.63,-122.07
575209.812000,0.756,0.371,0.32,-17.3,64.52,-58.75
575209.859000,0.794,0.176,0.297,-27.38,29.85,12.48
575209.906000,0.858,-0.121,0.249,-3.3,27.92,47.94
575209.953000,0.87,-0.245,0.282,-29.45,25.48,26.64
575210.000000,0.89,-0.204,0.416,-23.26,10.32,-1.13
575210.046000,0.885,-0.138,0.364,-6.35,-3.66,0.15
575210.093000,0.93,-0.1,0.31,-9.86,-17.12,-3.08
575210.140000,0.937,-0.076,0.238,-10.5,-13.15,2.01
575210.187000,0.951,-0.125,0.223,-1.37,-11.44,8.67
575210.234000,0.956,-0.117,0.236,-1.34,-11.72,10.41
575210.281000,0.957,-0.135,0.249,6.93,-11.26,14.56
575210.328000,0.982,-0.156,0.184,0.12,-21.85,10.19
575210.375000,0.979,-0.139,0.171,4.15,-15.2,8.0
575210.421000,0.976,-0.175,0.154,4.64,-13.18,10.19
575210.468000,0.983,-0.185,0.14,4.79,-8.51,4.58
575210.515000,0.979,-0.185,0.144,2.2,-2.44,-1.74
575210.562000,0.977,-0.172,0.128,2.17,-0.18,-3.97
575210.609000,0.977,-0.145,0.165,4.15,2.99,-4.88
575210.656000,0.977,-0.151,0.185,2.17,1.16,-3.63
575210.703000,0.977,-0.172,0.179,1.25,-1.95,-5.16
575210.750000,0.972,-0.169,0.157,0.61,-6.1,-13.79
575210.796000,0.975,-0.169,0.163,-9.34,-10.04,-19.17
575210.843000,0.972,-0.131,0.131,-4.97,-16.45,-18.77
575210.890000,0.951,-0.099,0.138,-13.76,-22.37,-17.88
575210.937000,0.963,-0.075,0.101,-17.3,-24.93,-11.84
575210.984000,0.977,-0.095,0.039,-24.51,-37.45,-4.58
575211.031000,0.972,-0.017,-0.021,-27.22,-16.11,-17.21
575211.078000,0.937,0.044,0.072,-25.79,-9.7,-12.48
575211.125000,0.939,-0.005,0.016,-19.65,-17.64,8.15
575211.171000,0.971,-0.101,-0.001,-17.12,-1.25,15.05
575211.218000,0.982,-0.124,-0.0,-19.29,-0.89,7.35
575211.265000,0.996,-0.122,-0.0,-6.68,9.55,10.13
575211.312000,1.001,-0.095,0.049,-0.98,13.79,3.39
575211.359000,1.008,-0.099,0.01,-13.55,15.11,1.65
575211.406000,0.977,-0.114,0.121,-9.98,19.38,-1.59
575211.453000,0.966,-0.167,0.17,-35.07,46.91,0.18
575211.500000,0.964,-0.146,0.148,-6.04,13.31,-12.12
575211.546000,0.956,-0.086,0.187,-13.64,2.9,-9.7
575211.593000,0.986,-0.058,0.094,-2.14,9.61,-3.85
575211.640000,0.984,-0.07,0.102,-6.29,-0.73,-3.63
575211.687000,0.997,-0.078,0.113,-5.16,14.16,1.86
575211.734000,0.994,-0.055,0.084,-0.49,13.34,-2.75
575211.781000,0.96,-0.049,0.144,-0.27,11.29,3.48
575211.828000,0.943,-0.078,0.169,6.87,8.21,6.87
575211.875000,0.931,-0.108,0.211,-2.38,5.01,2.08
575211.921000,0.953,-0.089,0.17,9.22,1.68,6.35
575211.968000,0.981,-0.101,0.166,10.04,0.49,5.55
575212.015000,0.993,-0.123,0.215,11.44,1.53,3.08
575212.062000,1.009,-0.137,0.199,12.57,6.87,4.03
575212.109000,0.998,-0.215,0.334,24.57,13.73,1.89
575212.156000,0.969,-0.208,0.305,23.16,5.83,-6.07
575212.218000,0.894,-0.163,0.452,28.44,14.77,-25.88
575212.265000,0.912,0.019,0.535,19.59,10.13,-19.62
575212.312000,0.904,0.149,0.573,50.33,2.75,-18.4
575212.359000,0.912,0.247,0.612,17.4,-27.68,-11.99
575212.406000,0.876,0.153,0.6,32.9,-39.46,26.7
575212.453000,0.819,0.15,0.435,0.98,-65.65,28.93
575212.500000,0.781,0.074,0.268,-32.01,-100.31,34.79
575212.546000,0.864,0.017,-0.109,-73.34,-121.25,32.87
575212.593000,0.76,-0.005,-0.507,-76.82,-130.1,23.01
575212.640000,0.814,-0.107,-0.582,-72.76,-76.08,34.52
575212.687000,0.686,0.019,-0.634,-128.73,-106.72,-12.94
575212.734000,0.728,-0.079,-0.887,-75.62,-126.13,58.72
575212.781000,0.638,-0.166,-1.169,-91.71,-87.65,6.44
575212.828000,0.628,-0.143,-0.722,-53.38,-47.18,33.78
575212.875000,0.86,-0.273,-0.754,-72.42,-48.62,-23.26
575212.921000,0.871,-0.187,-0.547,12.24,8.39,-12.09
575212.968000,0.82,0.294,-0.713,35.8,19.62,-59.79
575213.015000,0.825,0.147,-0.514,-5.68,22.25,-37.08
575213.062000,0.888,0.268,-0.635,5.34,-21.52,-11.51
575213.125000,0.861,0.041,-0.681,20.48,-7.32,16.11
575213.171000,0.782,-0.025,-0.597,5.74,12.85,-5.77
575213.218000,0.76,0.029,-0.592,6.16,-2.96,-8.97
575213.265000,0.765,0.051,-0.564,10.25,1.22,-6.78
575213.312000,0.781,0.027,-0.579,0.67,4.33,2.81
575213.359000,0.781,0.008,-0.499,-6.56,25.54,1.4
575213.406000,0.83,0.04,-0.634,1.56,3.78,9.19
575213.453000,0.825,-0.05,-0.505,0.61,1.89,16.27
575213.500000,0.853,-0.058,-0.598,-3.3,6.56,5.01
575213.546000,0.815,-0.02,-0.522,7.75,6.32,-1.04
575213.593000,0.803,0.036,-0.514,2.32,11.14,-8.48
575213.640000,0.808,0.049,-0.499,9.28,-6.41,3.3
575213.687000,0.821,0.049,-0.559,9.86,1.53,5.31
575213.734000,0.827,-0.014,-0.524,-7.39,-2.9,5.83
575213.781000,0.82,-0.037,-0.516,-5.98,3.63,6.44
575213.828000,0.819,-0.103,-0.537,-4.85,-2.44,7.75
575213.875000,0.816,-0.086,-0.53,1.56,-0.61,1.68
575213.921000,0.82,-0.041,-0.523,0.09,5.95,-5.98
575213.968000,0.808,-0.043,-0.505,-1.19,1.65,-4.7
575214.015000,0.819,-0.02,-0.513,1.31,2.17,-4.36
575214.062000,0.821,-0.029,-0.513,-2.14,1.43,-3.78
575214.109000,0.838,-0.032,-0.534,-0.76,7.45,-2.87
575214.156000,0.834,-0.036,-0.505,1.71,5.07,-7.63
575214.203000,0.835,-0.021,-0.53,0.82,17.06,-15.26
575214.250000,0.804,0.006,-0.447,0.76,10.8,-17.03
575214.296000,0.847,0.02,-0.532,5.62,11.81,-13.82
575214.343000,0.84,0.023,-0.475,3.66,18.86,-13.76
575214.390000,0.849,0.065,-0.446,5.55,17.0,-5.43
575214.437000,0.871,0.032,-0.479,3.51,7.54,-5.49
575214.484000,0.885,0.033,-0.479,7.87,10.56,0.7
575214.531000,0.869,0.019,-0.464,10.77,10.47,1.04
575214.578000,0.864,0.008,-0.417,7.57,11.72,-1.04
575214.625000,0.88,0.025,-0.459,8.64,5.65,-1.16
575214.671000,0.857,0.019,-0.405,3.02,3.48,-2.59
575214.718000,0.889,0.044,-0.453,1.98,-0.73,-2.59
575214.765000,0.853,0.014,-0.424,-0.58,2.81,1.56
575214.812000,0.876,-0.001,-0.46,1.07,-1.92,0.73
575214.859000,0.86,0.005,-0.424,1.92,1.1,-2.62
575214.906000,0.867,0.011,-0.438,3.05,-1.56,-2.47
575214.953000,0.908,-0.039,-0.541,17.12,-0.37,5.71
575215.000000,0.955,-0.048,-0.642,48.31,15.63,22.68
575215.046000,0.89,-0.065,-0.663,68.21,26.98,26.15
575215.093000,0.895,-0.064,-0.596,74.31,61.13,23.44
575215.140000,0.823,0.022,-0.626,62.01,49.29,-0.37
575215.187000,0.829,-0.031,-0.677,84.44,33.36,40.35
575215.234000,0.838,-0.151,-0.56,76.88,41.17,29.88
575215.281000,0.723,-0.165,-0.566,99.43,-30.34,11.44
575215.328000,0.833,-0.332,-0.661,70.35,27.71,1.98
575215.375000,0.824,-0.214,-0.413,14.37,82.03,-54.2
575215.421000,0.823,-0.148,-0.017,37.57,93.08,-49.04
575215.468000,0.875,-0.11,0.084,9.43,91.34,-44.37
575215.515000,0.908,-0.054,0.197,-7.05,85.42,-55.91
575215.562000,0.844,-0.01,0.286,-15.02,98.85,-46.94
575215.609000,0.867,-0.084,0.358,-50.2,89.54,-30.46
575215.656000,0.789,-0.047,0.518,-29.94,83.41,-24.2
575215.703000,0.708,0.028,0.591,-10.65,83.44,-23.68
575215.750000,0.589,0.152,0.781,-20.75,55.24,-10.47
575215.796000,0.775,-0.041,0.715,-26.61,13.0,44.4
575215.843000,0.958,-0.305,0.619,-32.96,-26.7,52.16
575215.890000,1.069,-0.298,0.485,5.4,-9.13,33.3
575215.937000,1.111,-0.243,0.518,-4.12,-14.37,11.08
575215.984000,1.113,-0.236,0.263,8.73,3.88,3.85
575216.031000,1.003,-0.142,0.35,9.64,29.39,-12.27
575216.078000,0.892,-0.092,0.408,7.81,29.18,-6.47
575216.125000,0.85,-0.1,0.4,9.28,12.7,-0.79
575216.171000,0.817,-0.09,0.374,12.54,1.65,0.58
575216.218000,0.855,-0.088,0.363,8.45,-2.96,1.04
575216.265000,0.871,-0.11,0.388,3.27,-10.35,5.34
575216.312000,0.915,-0.118,0.353,4.39,-10.38,6.13
575216.359000,0.931,-0.139,0.37,3.81,-6.01,6.81
575216.406000,0.93,-0.167,0.377,5.8,-1.83,4.55
575216.453000,0.899,-0.142,0.396,3.63,0.95,-1.04
575216.500000,0.898,-0.125,0.42,2.99,-11.63,-2.01
575216.546000,0.911,-0.12,0.363,-1.07,-10.04,-2.93
575216.593000,0.914,-0.124,0.348,-3.11,-14.59,-0.12
575216.640000,0.933,-0.135,0.327,-4.15,-8.06,2.32
575216.687000,0.917,-0.128,0.332,-8.94,-13.4,2.26
575216.734000,0.917,-0.116,0.324,-18.65,-13.64,7.81
575216.781000,0.918,-0.154,0.313,-14.98,-18.07,14.83
575216.828000,0.95,-0.219,0.219,-4.88,-13.12,16.02
575216.875000,0.929,-0.232,0.312,-7.57,-7.48,-0.21
575216.921000,0.894,-0.168,0.302,-2.75,-18.52,1.22
575216.968000,0.906,-0.154,0.278,10.22,-18.22,10.22
575217.015000,0.932,-0.215,0.234,10.74,-20.54,19.81
575217.062000,0.974,-0.241,0.151,8.12,-5.19,13.52
575217.109000,0.975,-0.226,0.272,6.74,1.07,4.91
575217.156000,0.948,-0.193,0.273,7.39,4.06,3.48
575217.203000,0.946,-0.199,0.271,16.11,2.96,10.5
575217.250000,0.966,-0.219,0.186,12.05,27.19,6.9
575217.296000,0.928,-0.258,0.271,9.46,32.29,-6.35
575217.343000,0.891,-0.22,0.346,2.93,18.46,-7.84
575217.390000,0.877,-0.179,0.382,3.75,1.16,0.12
575217.437000,0.891,-0.186,0.36,2.93,-7.75,2.38
575217.484000,0.93,-0.191,0.285,5.71,-15.14,2.78
575217.546000,0.957,-0.214,0.245,8.42,-12.67,7.35
575217.593000,0.94,-0.18,0.251,4.88,-4.49,2.26
575217.640000,0.931,-0.184,0.255,-0.12,1.74,3.11
575217.687000,0.926,-0.184,0.25,-1.04,6.78,4.58
575217.734000,0.903,-0.228,0.338,-24.41,15.66,-17.21
575217.781000,0.918,-0.188,0.326,-9.37,-6.71,-10.68
575217.828000,0.954,-0.192,0.266,-4.88,-6.44,-1.31
575217.875000,0.966,-0.193,0.277,-2.14,-0.21,-0.49
575217.921000,0.949,-0.186,0.284,-1.92,-0.49,0.79
575217.968000,0.937,-0.192,0.274,-7.9,5.8,-0.58
575218.031000,0.922,-0.178,0.283,-14.92,6.9,-4.06
575218.078000,0.905,-0.193,0.285,-25.36,4.46,-0.27
575218.125000,0.909,-0.272,0.309,-21.79,5.77,-4.64
575218.187000,0.889,-0.269,0.296,-26.4,8.33,-17.0
575218.234000,0.896,-0.272,0.307,-19.68,3.02,-15.14
575218.281000,0.912,-0.272,0.331,-6.68,12.67,-19.41
575218.328000,0.886,-0.121,0.385,-0.7,10.59,-26.0
575218.375000,0.878,0.006,0.403,-2.9,8.48,-25.33
575218.437000,0.896,-0.081,0.404,-13.37,-3.23,9.58
575218.484000,0.904,-0.294,0.459,-7.29,2.44,20.91
575218.531000,0.921,-0.356,0.482,0.52,0.4,6.13
575218.578000,0.918,-0.339,0.593,19.04,6.59,4.3
575218.625000,0.945,-0.252,0.466,17.37,4.3,-10.16
575218.671000,0.921,-0.177,0.552,16.88,18.52,-9.34
575218.718000,0.86,-0.054,0.677,27.25,20.39,-24.66
575218.765000,0.788,0.079,0.81,11.17,-1.07,-29.51
575218.812000,0.725,0.097,0.836,3.69,-37.39,10.47
575218.859000,0.77,0.05,0.699,-23.38,-85.54,25.03
575218.906000,0.737,-0.032,0.599,-25.15,-118.59,32.84
575218.953000,0.778,-0.183,0.154,-61.65,-169.07,50.36
575219.000000,0.724,-0.007,-0.414,-111.06,-178.84,-6.56
575219.046000,0.34,0.21,-0.716,-121.65,-153.94,12.12
575219.093000,0.24,0.053,-1.025,-143.04,-219.67,46.78
575219.140000,0.728,-0.063,-1.956,-223.46,-236.37,-8.67
575219.187000,0.976,-0.89,-1.389,-40.07,-26.0,165.93
575219.234000,0.844,-0.556,-0.677,63.11,34.42,-67.45
575219.281000,0.47,0.174,-0.442,-6.44,78.46,-165.32
575219.328000,0.686,0.43,-0.455,8.15,4.18,-61.62
575219.375000,0.887,0.141,-0.615,10.1,-15.2,4.3
575219.421000,0.897,0.036,-0.671,2.93,-14.16,7.35
575219.468000,0.871,0.019,-0.631,3.39,4.27,-8.45
575219.515000,0.805,0.082,-0.614,-4.52,8.94,-10.04
575219.562000,0.806,-0.01,-0.551,-7.75,1.86,-8.58
575219.609000,0.811,0.07,-0.571,-5.74,19.1,-10.93
575219.656000,0.78,0.07,-0.503,4.49,-0.15,-4.33
575219.703000,0.785,0.073,-0.527,-4.7,4.88,-3.23
575219.750000,0.825,0.001,-0.556,-8.18,-5.62,3.45
575219.796000,0.791,0.018,-0.562,-2.5,8.21,-2.59
575219.843000,0.795,0.022,-0.545,3.23,0.0,-1.74
575219.890000,0.81,0.046,-0.516,1.16,-1.59,-2.17
575219.937000,0.805,0.062,-0.5,6.13,-5.01,1.1
575219.984000,0.814,0.028,-0.55,1.74,-6.56,2.66
575220.031000,0.796,-0.001,-0.526,1.71,-0.06,3.85
575220.078000,0.808,-0.004,-0.54,1.74,1.22,-1.1
575220.125000,0.836,0.021,-0.566,1.34,3.36,-5.01
575220.171000,0.835,0.024,-0.56,7.32,2.78,2.69
575220.218000,0.813,0.018,-0.529,6.59,0.21,1.83
575220.265000,0.823,0.045,-0.569,2.75,0.49,-4.82
575220.312000,0.792,0.026,-0.519,-2.29,3.11,-3.33
575220.359000,0.815,0.031,-0.543,-1.19,2.47,-1.37
575220.406000,0.807,0.036,-0.532,1.95,1.25,1.65
575220.453000,0.805,0.019,-0.525,-1.92,2.81,0.64
575220.500000,0.814,0.009,-0.519,0.76,-3.45,-1.04
575220.546000,0.825,0.029,-0.548,-0.09,-1.01,-1.59
575220.593000,0.843,0.023,-0.568,2.9,-0.95,1.25
575220.640000,0.829,0.032,-0.542,0.76,1.86,-2.96
575220.687000,0.834,0.027,-0.55,-0.64,3.17,-3.11
575220.734000,0.822,0.049,-0.531,3.36,4.73,1.31
575220.781000,0.82,0.021,-0.541,-0.82,5.1,1.43
575220.828000,0.826,0.029,-0.534,2.96,9.74,3.2
575220.875000,0.812,0.038,-0.5,-3.51,13.46,6.41
575220.921000,0.814,-0.006,-0.499,-1.01,17.37,8.15
575220.968000,0.834,0.029,-0.5,1.16,23.38,8.58
575221.015000,0.839,-0.023,-0.441,-0.55,13.95,3.66
575221.062000,0.865,0.008,-0.513,4.18,9.4,2.87
575221.109000,0.872,0.011,-0.487,-3.63,10.9,-6.23
575221.156000,0.886,0.012,-0.491,-0.49,11.99,0.34
575221.203000,0.859,-0.016,-0.423,4.61,6.44,0.98
575221.250000,0.884,0.009,-0.488,0.24,3.48,-1.95
575221.296000,0.846,0.007,-0.438,4.09,4.97,-0.31
575221.343000,0.865,0.022,-0.473,0.46,-0.24,-3.75
575221.390000,0.858,0.016,-0.435,0.58,2.53,0.49
575221.437000,0.848,0.018,-0.443,0.15,-0.06,0.46
575221.484000,0.857,-0.002,-0.452,1.16,-2.08,4.33
575221.531000,0.881,-0.044,-0.471,2.93,2.38,2.44
575221.578000,0.873,-0.002,-0.456,7.2,8.61,-8.39
575221.625000,0.864,0.024,-0.419,5.74,5.77,-8.73
575221.671000,0.873,0.042,-0.441,5.1,-1.19,-5.34
575221.718000,0.877,0.016,-0.43,2.41,-4.27,-1.83
575221.765000,0.884,0.022,-0.456,-2.17,-1.01,-0.92
575221.812000,0.877,-0.009,-0.434,-2.9,-1.74,-0.82
575221.859000,0.878,0.025,-0.455,3.63,-2.44,-2.35
575221.906000,0.866,0.024,-0.439,-1.04,0.61,-5.13
575221.953000,0.872,0.032,-0.469,3.78,-0.76,2.01
575222.000000,0.864,0.017,-0.458,1.04,-0.64,-0.18
575222.046000,0.875,0.01,-0.448,2.01,0.43,0.49
575222.093000,0.871,0.028,-0.455,0.31,1.31,-3.81
575222.140000,0.871,0.016,-0.448,1.56,1.5,-0.82
575222.187000,0.865,0.017,-0.441,0.27,0.37,-2.17
575222.234000,0.867,0.023,-0.456,1.13,-0.95,-2.26
575222.281000,0.865,0.026,-0.433,1.4,2.99,0.37
575222.328000,0.86,0.024,-0.462,2.56,3.23,0.03
575222.375000,0.911,-0.011,-0.162,0.95,105.29,12.85
575222.421000,0.956,-0.018,-0.572,2.01,3.6,-4.18
575222.468000,0.867,0.058,-0.508,30.06,-23.29,-1.92
575222.515000,0.986,0.066,-0.329,-3.11,-39.55,3.02
575222.562000,0.859,-0.021,-0.603,33.69,-61.62,26.95
575222.609000,0.83,-0.115,-0.26,15.2,104.92,-24.45
575222.656000,0.999,-0.015,-0.393,29.79,52.22,7.81
575222.703000,1.047,0.1,-0.643,18.4,44.47,39.67
575222.750000,0.959,-0.161,-0.862,154.88,22.64,65.22
575222.796000,0.865,-0.189,-1.027,136.81,101.87,18.8
575222.843000,0.64,-0.074,-0.687,121.98,73.43,21.61
575222.890000,0.676,-0.147,-0.121,130.65,148.47,10.83
575222.937000,0.623,-0.093,0.224,82.22,108.71,-42.18
575222.984000,0.738,0.034,0.449,50.39,59.42,-65.65
575223.031000,0.809,0.12,0.483,-18.46,79.04,-44.5
575223.078000,0.831,0.101,0.051,-95.8,145.57,-33.75
575223.125000,0.828,0.011,1.15,-1.71,102.15,-32.81
575223.187000,0.694,-0.038,0.893,-85.12,24.08,-21.94
575223.234000,0.771,-0.147,0.697,-97.23,-29.42,-38.27
575223.281000,0.833,-0.305,0.716,-91.98,-11.17,-47.4
575223.328000,0.831,-0.315,0.595,-74.5,-23.68,-45.29
575223.375000,0.857,-0.261,0.519,-24.23,-14.65,-20.87
575223.421000,0.825,-0.201,0.624,-21.91,6.53,-11.72
575223.468000,0.798,-0.116,0.445,-11.81,15.69,3.11
575223.515000,0.8,-0.137,0.677,5.22,19.01,10.41
575223.562000,0.825,-0.156,0.541,-21.61,34.06,-0.73
575223.609000,0.818,-0.221,0.574,4.39,16.91,9.74
575223.656000,0.838,-0.261,0.496,26.25,2.87,5.74
575223.703000,0.741,-0.157,0.686,28.38,9.16,-0.79
575223.750000,0.48,-0.253,1.032,51.64,8.24,56.43
575223.796000,0.673,-0.379,1.113,66.32,-24.32,72.15
575223.843000,1.089,-0.293,0.812,64.39,-30.64,-1.25
575223.890000,0.899,0.035,0.959,76.82,19.44,-29.02
575223.937000,0.642,0.13,1.199,85.09,-7.87,-7.81
575223.984000,0.572,0.187,0.952,34.33,-68.36,12.91
575224.031000,0.621,0.127,0.603,9.28,-125.89,32.75
575224.078000,0.79,0.0,0.059,-76.48,-133.52,18.56
575224.125000,0.689,0.224,-0.056,-90.98,-143.93,-44.62
575224.171000,0.562,0.267,-0.569,-119.27,-155.16,29.63
575224.218000,0.402,0.356,-1.085,-134.77,-215.95,19.2
575224.265000,0.709,-0.324,-1.459,-159.25,-178.14,118.99
575224.312000,1.218,-0.783,-1.113,-92.14,-110.14,73.09
575224.359000,0.903,-0.588,-0.579,-20.39,30.27,-20.97
575224.406000,0.639,-0.139,-0.251,12.21,-1.65,-81.91
575224.453000,0.743,0.191,-0.304,4.36,-8.39,-28.66
575224.500000,0.983,-0.045,-0.576,0.55,-28.57,-7.05
575224.546000,0.961,-0.001,-0.368,7.63,-7.08,-11.05
575224.593000,0.888,0.03,-0.426,-7.75,-4.76,-28.5
575224.640000,0.919,0.014,-0.414,-6.04,-3.66,-12.39
575224.687000,0.869,-0.054,-0.453,-2.72,1.04,-11.32
575224.734000,0.883,-0.048,-0.43,-16.6,-1.4,-27.22
575224.781000,0.845,0.035,-0.404,-3.97,0.89,-16.14
575224.828000,0.873,0.014,-0.388,-2.04,-5.55,-9.77
575224.890000,0.885,0.061,-0.426,-0.98,-5.92,-0.49
575224.937000,0.92,0.062,-0.428,1.59,-6.53,7.54
575224.984000,0.926,0.021,-0.43,-6.01,-2.04,-0.18
575225.031000,0.903,0.022,-0.445,-2.23,-5.62,2.17
575225.078000,0.847,0.046,-0.392,-5.07,-8.51,-5.92
575225.125000,0.881,0.009,-0.439,-13.55,-10.8,-4.94
575225.171000,0.888,-0.031,-0.453,5.65,-4.67,13.89
575225.218000,0.881,-0.042,-0.447,12.63,1.74,12.51
575225.265000,0.874,0.027,-0.436,5.92,-1.59,-8.7
575225.312000,0.879,0.078,-0.419,1.34,1.92,-5.52
575225.359000,0.875,0.059,-0.403,3.78,1.34,3.88
575225.406000,0.905,0.029,-0.453,0.73,-3.08,7.2
575225.453000,0.885,0.002,-0.42,0.82,4.27,5.34
575225.500000,0.882,0.0,-0.451,-1.28,-1.5,0.06
575225.546000,0.878,-0.001,-0.422,4.15,0.82,7.84
575225.593000,0.87,-0.018,-0.427,1.31,-0.46,0.37
575225.640000,0.898,-0.018,-0.444,-2.14,-0.12,-5.86
575225.687000,0.873,0.007,-0.418,1.74,1.83,-0.24
575225.734000,0.877,-0.032,-0.436,-2.59,-2.35,-6.78
575225.781000,0.874,-0.006,-0.415,1.53,0.64,-0.92
575225.828000,0.882,0.012,-0.447,-0.09,-1.4,-4.12
575225.875000,0.877,0.002,-0.428,2.11,2.81,1.86
575225.921000,0.867,0.01,-0.435,3.72,0.21,0.7
575225.968000,0.877,0.011,-0.441,-0.55,-0.24,-5.37
575226.015000,0.849,-0.0,-0.41,-1.74,-0.12,-1.92
575226.062000,0.844,-0.043,-0.412,-7.81,-0.76,-13.03
575226.109000,0.871,0.009,-0.453,-2.47,-4.24,-22.55
575226.156000,0.865,0.061,-0.448,5.43,-1.13,-8.27
575226.203000,0.878,0.081,-0.455,9.64,-5.25,-0.18
575226.250000,0.895,0.075,-0.459,2.14,-3.2,-2.9
575226.296000,0.885,0.094,-0.443,2.87,-3.48,-2.69
575226.343000,0.902,0.097,-0.484,-2.66,-2.04,-2.04
575226.390000,0.886,0.085,-0.461,0.15,-0.4,4.15
575226.437000,0.879,0.077,-0.463,-2.5,1.16,-1.43
575226.484000,0.875,0.064,-0.455,-2.2,2.93,3.54
575226.531000,0.863,0.037,-0.447,-0.52,4.03,4.64
575226.578000,0.85,0.05,-0.462,-2.59,-0.15,-2.17
575226.625000,0.856,0.028,-0.458,-3.75,2.75,1.25
575226.687000,0.848,0.046,-0.45,2.17,3.48,4.09
575226.734000,0.873,0.044,-0.451,-1.53,3.88,-3.63
575226.781000,0.864,0.061,-0.427,-2.69,0.58,-0.98
575226.828000,0.875,0.075,-0.458,-0.85,0.85,1.62
575226.875000,0.879,0.042,-0.453,-2.53,1.89,3.48
575226.921000,0.866,0.044,-0.445,-2.38,3.08,1.86
575226.968000,0.887,0.022,-0.476,-3.63,5.74,-2.99
575227.015000,0.942,0.024,-0.558,9.83,9.43,7.08
575227.062000,0.981,0.001,-0.647,34.58,21.67,17.88
575227.109000,0.94,-0.065,-0.654,77.49,59.79,39.95
575227.156000,0.815,0.096,-0.761,72.45,66.44,-12.91
575227.203000,0.767,0.087,-0.816,88.84,63.63,22.03
575227.250000,0.675,-0.015,-0.755,80.9,68.79,22.19
575227.296000,0.621,-0.08,-0.587,94.24,60.37,19.87
575227.343000,0.714,-0.045,-0.218,65.34,87.77,-29.21
575227.390000,0.711,0.022,-0.158,54.51,70.68,-24.23
575227.437000,0.821,-0.088,0.114,35.28,92.32,-0.24
575227.484000,0.863,-0.032,0.24,-1.43,74.95,-35.19
575227.531000,0.913,-0.097,0.516,-17.46,79.23,-12.18
575227.578000,0.991,-0.059,0.402,-35.4,43.24,-17.12
575227.625000,1.001,-0.083,0.478,-24.87,60.88,-0.79
575227.671000,0.925,0.139,0.914,-58.26,99.58,-26.09
575227.718000,0.927,-0.101,1.05,-92.56,12.79,-17.18
575227.765000,1.006,-0.44,0.601,-26.7,-6.23,-0.73
575227.812000,0.935,-0.312,0.512,-19.62,12.39,-40.28
575227.859000,0.83,-0.114,0.449,-1.19,34.18,-17.43
575227.906000,0.806,-0.069,0.429,14.44,39.67,6.53
575227.953000,0.782,-0.085,0.451,17.21,38.54,16.02
575228.000000,0.81,-0.048,0.475,14.68,17.67,10.59
575228.046000,0.848,-0.047,0.476,13.95,4.49,12.76
575228.093000,0.917,-0.04,0.392,10.19,-3.97,0.52
575228.140000,0.931,-0.022,0.381,3.23,-8.58,-3.33
575228.187000,0.918,-0.052,0.398,2.04,4.03,0.15
575228.234000,0.827,-0.099,0.484,-2.75,12.36,5.77
575228.281000,0.822,-0.098,0.516,0.12,5.95,0.34
575228.328000,0.763,-0.078,0.599,-2.47,7.72,3.3
575228.375000,0.799,-0.116,0.608,-2.72,-0.31,9.19
575228.421000,0.682,-0.24,0.876,12.76,1.8,32.07
575228.468000,0.634,-0.371,0.961,21.58,2.75,63.08
575228.515000,0.562,-0.253,1.094,79.44,-27.34,48.1
575228.562000,0.73,0.018,0.895,86.4,-59.36,42.42
575228.609000,0.814,-0.034,0.868,58.05,-74.19,53.68
575228.656000,0.907,-0.028,0.757,-5.77,-87.83,21.33
575228.703000,0.88,0.023,0.643,-20.08,-137.82,21.18
575228.750000,0.749,0.088,0.14,-99.89,-160.07,-4.33
575228.796000,0.553,-0.049,-0.622,-95.31,-212.44,82.77
575228.843000,0.116,0.179,-1.412,-224.86,-220.16,-52.98
575228.890000,0.748,0.284,-2.155,-288.49,-217.87,-106.23
575228.937000,1.016,-0.218,-1.184,-136.91,-53.96,46.88
575228.984000,1.158,-0.753,-0.902,47.61,-0.98,51.61
575229.031000,0.609,0.365,-0.301,-30.64,72.57,-150.94
575229.078000,0.692,0.421,-0.375,28.53,5.65,2.53
575229.125000,0.83,0.229,-0.551,5.37,-12.63,1.62
575229.171000,0.941,0.026,-0.552,-1.31,-13.0,10.53
575229.218000,0.842,0.08,-0.417,-3.48,-1.07,-11.96
575229.265000,0.794,0.145,-0.477,-5.68,-5.25,-6.59
575229.312000,0.812,-0.002,-0.465,-4.03,-7.14,12.33
575229.359000,0.815,-0.001,-0.48,-5.28,-6.41,-2.23
575229.406000,0.813,0.03,-0.49,-3.33,-6.93,-7.08
575229.453000,0.848,0.085,-0.531,-1.43,-2.35,-9.16
575229.500000,0.849,0.041,-0.492,-2.84,-6.26,-0.82
575229.546000,0.848,0.11,-0.485,6.74,-7.2,5.19
575229.593000,0.862,0.075,-0.532,-3.97,-3.94,0.82
575229.640000,0.868,0.017,-0.538,1.98,-5.65,11.96
575229.687000,0.851,0.002,-0.527,0.15,0.76,-3.88
575229.734000,0.829,0.074,-0.517,-1.28,2.9,-9.52
575229.781000,0.806,0.104,-0.493,2.93,3.78,-1.37
575229.828000,0.86,0.037,-0.545,-2.56,-6.62,3.57
575229.875000,0.846,0.023,-0.497,0.46,2.23,2.11
575229.921000,0.831,0.069,-0.506,1.5,2.9,-0.21
575229.968000,0.845,0.037,-0.516,-6.16,-1.56,-2.47
575230.015000,0.823,0.062,-0.485,5.52,1.86,7.48
575230.062000,0.827,0.063,-0.516,-3.27,-0.58,1.25
575230.109000,0.84,0.022,-0.524,-3.85,-2.53,5.83
575230.156000,0.812,0.04,-0.487,-0.58,0.98,3.66
575230.203000,0.834,0.012,-0.536,-6.74,-1.59,-2.62
575230.250000,0.833,0.034,-0.501,0.27,-4.21,2.17
575230.296000,0.849,0.022,-0.539,-1.43,-1.53,-0.85
575230.343000,0.857,0.008,-0.523,0.82,-2.04,2.69
575230.390000,0.833,0.02,-0.526,0.64,2.44,-3.45
575230.437000,0.824,0.027,-0.512,-0.31,0.12,-5.01
575230.484000,0.839,0.064,-0.521,4.46,0.18,1.92
575230.531000,0.819,0.044,-0.505,1.95,-0.15,-2.69
575230.578000,0.834,0.042,-0.522,1.8,-1.86,1.62
575230.625000,0.826,0.047,-0.503,2.56,-2.11,1.62
575230.671000,0.841,0.032,-0.542,-1.16,-0.49,-2.56
575230.718000,0.825,0.047,-0.501,-0.06,0.64,-1.19
575230.765000,0.829,0.062,-0.518,-2.5,-0.21,-3.2
575230.812000,0.84,0.019,-0.554,-2.32,1.04,-2.69
575230.859000,0.826,0.04,-0.516,0.24,1.4,-2.96
575230.906000,0.799,0.07,-0.513,4.36,4.21,-3.39
575230.953000,0.831,0.058,-0.511,1.8,-1.74,3.45
575231.000000,0.823,0.034,-0.49,-0.89,-1.04,1.98
575231.046000,0.828,0.05,-0.523,-3.02,-2.14,-4.33
575231.093000,0.835,0.041,-0.516,-3.69,-1.86,-1.04
575231.140000,0.851,0.053,-0.532,-2.66,-0.15,-1.5
575231.187000,0.851,0.031,-0.533,-3.17,0.89,1.56
575231.234000,0.852,0.051,-0.535,0.15,2.72,1.83
575231.281000,0.811,0.085,-0.502,6.1,4.55,5.16
575231.328000,0.829,-0.042,-0.615,22.25,0.21,25.18
575231.375000,0.981,-0.295,-0.932,67.78,11.32,25.33
575231.421000,0.803,-0.172,-1.194,156.38,94.79,15.29
575231.468000,0.763,0.143,-0.989,128.7,125.46,-68.51
575231.515000,0.627,0.4,-0.794,110.84,139.74,-46.27
575231.562000,0.642,0.046,-0.507,90.61,62.72,10.22
575231.609000,0.767,0.05,-0.708,88.11,54.93,8.94
575231.656000,0.773,0.03,-0.239,49.1,95.43,-28.17
575231.703000,0.624,-0.045,0.327,31.92,122.17,-17.64
575231.750000,0.609,-0.111,0.531,25.09,87.19,-11.54
575231.796000,0.845,-0.046,0.424,-16.88,45.29,-27.47
575231.843000,0.923,-0.093,0.472,-26.03,28.9,-8.67
575231.890000,0.985,-0.045,0.268,-9.92,44.31,-6.74
575231.937000,0.914,0.21,0.454,-47.94,45.84,-26.7
575231.984000,0.863,0.264,0.32,-61.86,31.53,5.43
575232.031000,0.89,-0.252,0.676,-96.96,53.07,82.4
575232.078000,1.053,-0.72,0.876,-57.65,34.55,65.71
575232.125000,1.095,-0.612,0.648,-1.59,-10.68,-31.07
575232.171000,1.087,-0.295,0.417,19.32,-3.94,-48.68
575232.218000,0.971,-0.06,0.254,16.91,18.22,-32.69
575232.265000,0.877,-0.033,0.283,12.73,42.57,-14.01
575232.312000,0.818,-0.089,0.286,6.47,35.49,-9.77
575232.359000,0.798,-0.076,0.348,6.04,23.5,-3.36
575232.406000,0.792,-0.091,0.386,6.26,0.85,4.15
575232.453000,0.816,-0.078,0.441,2.99,-8.64,6.81
575232.500000,0.904,-0.08,0.358,-1.19,-24.66,5.71
575232.546000,0.983,-0.118,0.327,-4.33,-17.49,5.62
575232.593000,0.983,-0.122,0.345,0.92,-7.63,8.48
575232.640000,0.999,-0.157,0.334,-2.56,-4.3,4.15
575232.687000,0.965,-0.118,0.308,8.18,5.71,-5.04
575232.734000,0.943,-0.121,0.313,6.41,8.09,-0.31
575232.796000,0.89,-0.089,0.324,3.42,12.57,-3.72
575232.843000,0.85,-0.094,0.394,2.11,8.58,2.72
575232.890000,0.895,-0.1,0.33,-1.13,2.59,2.75
575232.937000,0.894,-0.139,0.394,-0.37,9.52,10.86
575232.984000,0.884,-0.188,0.429,7.66,10.93,17.85
575233.031000,0.845,-0.176,0.558,17.12,8.58,13.0
575233.078000,0.819,-0.148,0.675,19.26,6.84,25.27
575233.125000,0.805,-0.164,0.883,4.12,23.77,46.02
575233.171000,0.837,-0.358,1.071,33.69,2.53,83.32
575233.218000,0.869,-0.133,0.941,51.33,-9.89,27.56
575233.265000,0.731,0.024,1.059,5.16,-23.9,-20.84
575233.312000,0.653,-0.018,1.012,-4.61,-80.72,9.22
575233.359000,0.686,-0.134,0.511,-70.96,-155.89,28.47
575233.406000,0.802,-0.205,0.173,-64.76,-172.46,32.23
575233.453000,0.438,-0.037,-0.363,-139.93,-202.7,-17.0
575233.500000,-0.087,0.254,-1.192,-172.4,-256.51,-40.5
575233.546000,0.797,0.328,-2.619,-307.08,-290.63,-75.47
575233.593000,0.742,-0.666,-0.88,-70.59,41.41,144.51
575233.640000,0.944,-0.885,-0.624,62.04,17.24,49.78
575233.687000,0.548,0.384,-0.292,-10.53,69.06,-191.26
575233.734000,0.607,0.359,-0.3,9.43,9.74,-21.27
575233.781000,0.834,0.238,-0.54,-4.3,-16.27,6.32
575233.828000,0.994,-0.09,-0.595,16.33,-21.09,28.44
575233.875000,0.891,0.017,-0.579,-3.51,22.1,-24.72
575233.921000,0.838,0.102,-0.426,4.85,-8.45,-24.32
575233.968000,0.784,0.135,-0.436,0.61,4.97,-6.41
575234.015000,0.839,0.086,-0.53,-12.7,-14.83,-6.2
575234.062000,0.85,0.0,-0.493,-2.69,-7.02,2.47
575234.109000,0.796,0.027,-0.432,-1.53,-11.44,-10.35
575234.156000,0.794,0.052,-0.515,-12.05,-10.9,-15.9
575234.203000,0.838,0.132,-0.531,-4.33,-14.13,0.12
575234.250000,0.871,0.065,-0.557,1.68,-15.84,11.96
575234.296000,0.905,0.035,-0.608,-3.42,-9.8,7.32
575234.343000,0.885,0.068,-0.534,5.01,-4.12,6.74
575234.390000,0.847,0.065,-0.558,-4.12,3.97,-0.67
575234.437000,0.858,0.074,-0.534,2.96,-1.77,8.3
575234.484000,0.828,0.034,-0.54,3.17,4.49,8.39
575234.531000,0.842,0.013,-0.552,-1.22,2.96,0.98
575234.578000,0.794,0.031,-0.503,1.59,5.92,0.09
575234.625000,0.816,0.025,-0.56,-4.52,3.33,-5.22
575234.671000,0.794,0.024,-0.475,-8.76,4.88,-6.9
575234.718000,0.784,0.02,-0.49,-6.38,3.48,-3.39
575234.765000,0.79,0.053,-0.538,1.16,-2.99,1.04
575234.812000,0.828,0.044,-0.519,-0.43,-3.75,-0.43
575234.859000,0.828,0.057,-0.543,1.92,-5.04,2.81
575234.906000,0.857,0.058,-0.569,0.92,-4.0,-0.03
575234.953000,0.83,0.058,-0.525,-3.39,1.71,-8.12
575235.000000,0.844,0.09,-0.573,-4.91,0.95,-5.13
575235.046000,0.837,0.067,-0.534,-5.95,4.39,-3.2
575235.093000,0.827,0.073,-0.55,-3.3,8.18,1.53
575235.140000,0.836,0.054,-0.542,0.95,4.46,0.76
575235.187000,0.825,0.075,-0.538,2.99,12.57,-3.57
575235.234000,0.808,0.089,-0.465,-5.46,11.54,0.03
575235.281000,0.826,0.073,-0.45,-2.35,1.92,3.85
575235.328000,0.812,0.061,-0.495,-0.49,-0.4,-2.08
575235.375000,0.849,0.086,-0.535,-2.35,0.21,-4.73
575235.421000,0.804,0.091,-0.449,4.3,-0.7,3.17
575235.468000,0.842,0.091,-0.533,-3.54,-2.56,1.95
575235.515000,0.836,0.087,-0.479,3.42,-3.02,4.3
575235.562000,0.834,0.081,-0.509,1.19,-5.31,7.29
575235.609000,0.85,0.07,-0.514,-2.04,-3.97,5.4
575235.656000,0.837,0.047,-0.606,20.11,1.31,14.83
575235.703000,0.845,0.038,-0.669,38.79,4.97,16.14
575235.750000,0.999,0.116,-0.851,57.8,29.3,-9.83
575235.796000,0.895,0.202,-0.925,91.98,59.85,-2.26
575235.843000,0.718,0.092,-0.955,100.86,72.51,10.44
575235.906000,0.507,-0.001,-0.814,97.66,94.21,-27.47
575235.953000,0.614,-0.002,-0.556,94.49,101.47,-32.78
575236.000000,0.705,-0.036,-0.407,77.88,93.54,-12.73
575236.046000,0.808,-0.156,-0.024,55.33,76.36,-25.18
575236.093000,0.893,-0.094,0.101,33.85,91.65,-18.37
575236.140000,0.905,-0.037,0.285,12.97,85.06,-27.77
575236.187000,0.931,-0.046,0.263,4.33,78.92,-6.23
575236.234000,0.913,-0.059,0.392,-14.16,89.94,1.22
575236.281000,0.799,0.102,0.461,-21.61,100.04,-28.41
575236.328000,0.617,0.349,0.756,-40.13,107.85,-25.06
575236.375000,0.631,0.266,0.969,-109.04,38.7,36.77
575236.437000,0.961,-0.519,0.932,-78.01,-16.24,78.55
575236.484000,1.113,-0.663,0.615,-12.85,-40.28,6.5
575236.531000,1.097,-0.326,0.374,15.72,-27.07,-46.72
575236.578000,0.999,-0.124,0.232,31.74,7.81,-15.78
575236.625000,0.888,-0.071,0.309,22.58,39.12,-1.92
575236.671000,0.819,-0.092,0.334,22.1,29.73,11.84
575236.718000,0.836,-0.149,0.363,21.52,18.4,18.86
575236.765000,0.847,-0.138,0.35,14.34,6.68,2.04
575236.812000,0.888,-0.103,0.353,14.28,-3.69,8.27
575236.859000,0.912,-0.084,0.379,8.88,-5.43,3.11
575236.906000,0.929,-0.112,0.38,8.48,-7.75,6.84
575236.953000,0.943,-0.167,0.375,8.15,-6.93,4.91
575237.000000,0.898,-0.137,0.417,11.05,-0.46,1.34
575237.046000,0.875,-0.134,0.402,14.53,-0.09,9.58
575237.093000,0.855,-0.146,0.43,21.42,-1.19,21.39
575237.140000,0.898,-0.15,0.37,38.09,-2.62,41.41
575237.187000,0.922,-0.142,0.311,40.41,2.35,53.56
575237.234000,0.927,-0.235,0.362,9.55,6.71,29.97
575237.281000,0.883,-0.241,0.387,9.86,0.64,13.0
575237.328000,0.878,-0.204,0.371,22.19,-4.7,23.83
575237.375000,0.892,-0.219,0.347,17.67,-1.86,27.74
575237.421000,0.871,-0.245,0.38,2.14,-0.58,14.31
575237.468000,0.88,-0.299,0.386,-8.09,-4.27,-2.93
575237.515000,0.892,-0.285,0.4,-0.98,-2.99,-0.24
575237.562000,0.898,-0.271,0.388,-1.22,-1.53,-3.97
575237.609000,0.894,-0.235,0.387,-5.13,-1.43,-11.63
575237.656000,0.898,-0.218,0.376,-3.97,-2.44,-9.49
575237.703000,0.883,-0.22,0.373,-1.89,1.16,-2.59
575237.750000,0.882,-0.237,0.37,-2.44,1.5,-0.09
575237.796000,0.875,-0.244,0.39,-4.88,0.98,-3.91
575237.843000,0.894,-0.239,0.357,-4.76,-0.55,-4.21
575237.890000,0.9,-0.228,0.377,-4.27,2.56,-3.05
575237.937000,0.888,-0.227,0.393,-4.46,5.8,-2.56
575237.984000,0.884,-0.229,0.39,-4.91,3.27,-4.12
575238.031000,0.872,-0.216,0.404,-8.55,1.37,-5.74
575238.078000,0.863,-0.213,0.413,-7.05,1.86,-1.43
575238.125000,0.87,-0.233,0.404,-6.93,0.95,2.14
575238.171000,0.864,-0.231,0.399,-6.71,-0.09,6.16
575238.218000,0.863,-0.231,0.413,-5.07,-0.89,11.44
575238.265000,0.877,-0.255,0.385,0.37,-4.58,19.75
575238.312000,0.887,-0.26,0.385,10.93,0.89,31.01
575238.359000,0.887,-0.31,0.367,6.32,0.98,27.56
575238.406000,0.867,-0.337,0.391,3.17,3.72,13.89
575238.453000,0.842,-0.325,0.421,0.09,3.08,7.2
575238.500000,0.852,-0.331,0.402,4.79,-2.11,9.25
575238.546000,0.852,-0.324,0.398,3.11,-0.34,7.02
575238.593000,0.861,-0.336,0.385,0.43,-0.27,3.2
575238.640000,0.858,-0.34,0.39,1.68,1.59,2.72
575238.687000,0.856,-0.333,0.4,0.67,1.28,0.76
575238.734000,0.865,-0.331,0.396,0.37,0.09,-0.64
575238.781000,0.871,-0.334,0.391,-0.15,2.38,-1.22
575238.828000,0.873,-0.337,0.384,0.85,4.91,-3.63
575238.875000,0.856,-0.332,0.405,-2.11,3.3,-7.35
575238.921000,0.844,-0.313,0.41,-3.94,4.15,-12.09
575238.968000,0.853,-0.342,0.396,-11.87,3.17,-20.42
575239.015000,0.84,-0.339,0.413,-19.99,-0.7,-41.14
575239.062000,0.85,-0.268,0.417,-11.14,-2.35,-36.99
575239.109000,0.875,-0.233,0.37,-10.77,-5.04,-27.25
575239.156000,0.881,-0.204,0.387,-11.14,-4.85,-26.03
575239.203000,0.892,-0.19,0.379,-4.06,-3.78,-7.17
575239.250000,0.893,-0.197,0.36,0.37,-2.35,4.18
575239.296000,0.876,-0.178,0.384,5.95,1.95,11.47
575239.343000,0.854,-0.143,0.365,46.72,2.62,70.1
575239.390000,0.877,-0.278,0.347,44.28,11.35,89.11
575239.437000,0.847,-0.469,0.394,-13.46,14.25,17.43
575239.484000,0.816,-0.426,0.472,-21.76,1.13,-35.16
575239.531000,0.831,-0.319,0.451,-14.19,-5.62,-35.28
575239.578000,0.854,-0.236,0.409,-2.66,-8.64,-17.12
575239.625000,0.884,-0.224,0.355,3.08,-0.27,7.87
575239.671000,0.87,-0.288,0.407,5.98,6.99,21.67
575239.718000,0.861,-0.344,0.413,7.02,7.05,22.95
575239.765000,0.844,-0.378,0.43,-3.85,2.04,2.9
575239.812000,0.846,-0.353,0.421,-2.78,0.12,-6.56
575239.859000,0.846,-0.32,0.412,-2.93,1.13,-6.53
575239.906000,0.85,-0.335,0.406,-6.35,0.06,-12.45
575239.953000,0.861,-0.337,0.422,-9.55,0.55,-19.47
575240.000000,0.868,-0.322,0.411,-11.38,-2.23,-27.65
575240.046000,0.877,-0.274,0.401,1.5,-1.92,-14.83
575240.093000,0.882,-0.213,0.394,37.81,1.43,25.15
575240.140000,0.919,-0.28,0.319,50.84,18.25,68.79
575240.187000,0.865,-0.385,0.406,1.89,20.94,5.01
575240.234000,0.782,-0.323,0.5,-25.45,10.62,-44.19
575240.281000,0.792,-0.281,0.474,-16.05,-2.01,-33.66
575240.328000,0.815,-0.263,0.435,-17.12,-3.2,-35.25
575240.375000,0.825,-0.206,0.446,-18.1,-4.76,-30.79
575240.421000,0.863,-0.181,0.428,-12.63,-8.73,-22.16
575240.468000,0.888,-0.16,0.412,-18.22,-7.02,-18.62
575240.515000,0.878,-0.13,0.433,-1.53,-4.7,2.84
575240.562000,0.87,-0.124,0.404,31.77,4.0,60.64
575240.609000,0.865,-0.24,0.412,33.11,9.34,81.48
575240.656000,0.832,-0.451,0.449,-14.92,12.39,36.47
575240.703000,0.8,-0.468,0.485,-25.94,-1.86,-28.02
575240.750000,0.832,-0.339,0.485,-16.66,-9.77,-42.36
575240.796000,0.861,-0.243,0.451,-16.82,-12.12,-41.51
575240.843000,0.914,-0.231,0.399,-11.35,-15.26,-23.8
575240.890000,0.923,-0.273,0.373,-9.46,-10.1,-25.76
575240.937000,0.894,-0.279,0.371,-16.54,-4.61,-38.67
575240.984000,0.86,-0.199,0.44,-7.48,-6.87,-39.09
575241.031000,0.855,-0.121,0.428,-0.67,-3.33,-25.64
575241.078000,0.86,-0.083,0.436,5.52,-6.26,-9.31
575241.125000,0.822,-0.102,0.499,-1.86,-5.34,1.04
575241.171000,0.717,-0.166,0.658,3.63,-17.24,22.06
575241.218000,0.734,-0.337,0.737,4.88,-33.42,47.98
575241.265000,0.877,-0.225,0.553,23.47,-46.11,24.05
575241.312000,1.036,-0.076,0.614,-13.98,-25.21,-20.26
575241.359000,0.975,-0.101,0.622,20.48,-20.05,0.82
575241.406000,0.854,-0.18,0.683,3.08,-34.67,6.1
575241.453000,0.816,-0.181,0.526,7.39,-82.09,10.71
575241.500000,0.921,-0.296,0.242,-31.98,-120.76,16.48
575241.546000,1.031,-0.311,-0.131,-24.14,-129.55,26.37
575241.593000,0.872,-0.223,-0.093,-94.73,-91.62,-55.51
575241.640000,0.65,0.165,-0.477,-105.99,-134.83,-37.11
575241.687000,0.498,0.207,-0.624,-132.57,-121.28,-20.42
575241.734000,0.379,0.363,-1.341,-162.79,-158.3,-10.74
575241.781000,0.749,0.171,-1.355,-162.39,-134.89,22.03
575241.828000,0.979,-0.698,-0.747,-29.42,-33.45,118.56
575241.875000,0.827,-0.352,-0.592,44.8,3.08,-10.8
575241.921000,0.6,0.224,-0.471,1.22,35.4,-87.31
575241.968000,0.719,0.113,-0.495,18.8,-16.45,-1.01
575242.015000,0.82,0.109,-0.458,-12.39,-0.31,-5.83
575242.062000,0.79,0.007,-0.592,2.81,-16.24,15.56
575242.109000,0.812,-0.047,-0.59,-7.57,-4.0,-1.71
575242.156000,0.787,-0.021,-0.548,3.72,-5.8,2.17
575242.218000,0.771,0.015,-0.58,-4.18,1.01,0.89
575242.265000,0.824,-0.042,-0.609,-5.92,-10.8,2.96
575242.312000,0.825,-0.052,-0.596,2.9,5.13,10.13
575242.359000,0.831,-0.003,-0.586,-2.35,1.83,-5.46
575242.406000,0.873,-0.029,-0.633,3.94,8.0,8.94
575242.453000,0.852,-0.05,-0.591,7.35,9.34,6.56
575242.500000,0.789,-0.036,-0.543,3.85,11.51,-2.99
575242.546000,0.796,-0.02,-0.542,5.86,6.59,0.12
575242.593000,0.771,-0.008,-0.505,1.89,3.36,4.61
575242.640000,0.81,-0.076,-0.56,-4.18,1.4,5.04
575242.687000,0.764,-0.079,-0.484,1.22,2.66,2.78
575242.734000,0.808,-0.067,-0.559,-2.93,-0.58,-8.97
575242.781000,0.797,-0.048,-0.515,2.62,2.93,-3.63
575242.828000,0.815,-0.062,-0.536,6.35,3.54,-0.67
575242.875000,0.809,-0.035,-0.545,2.23,5.16,-4.49
575242.921000,0.811,-0.047,-0.5,3.97,-0.58,-0.27
575242.968000,0.822,-0.015,-0.565,0.58,-2.11,-1.43
575243.015000,0.828,-0.051,-0.549,-5.49,-0.15,-2.9
575243.062000,0.837,-0.054,-0.54,2.38,0.58,3.81
575243.109000,0.839,-0.051,-0.56,2.38,-0.92,3.05
575243.156000,0.834,-0.048,-0.542,1.92,1.46,5.71
575243.203000,0.832,-0.046,-0.545,3.91,1.07,6.5
575243.250000,0.852,-0.075,-0.569,-3.02,2.11,2.44
575243.296000,0.827,-0.067,-0.52,1.25,6.32,3.02
575243.343000,0.824,-0.081,-0.558,-5.49,8.82,-6.56
575243.390000,0.829,-0.062,-0.522,-7.08,8.27,-6.07
575243.437000,0.818,-0.045,-0.51,-0.34,6.87,-6.35
575243.484000,0.826,-0.042,-0.524,-1.77,4.91,-6.62
575243.531000,0.8,-0.03,-0.474,6.2,2.23,1.92
575243.578000,0.818,-0.037,-0.53,2.41,-1.28,-1.95
575243.625000,0.814,-0.031,-0.501,2.96,-2.84,-1.68
575243.671000,0.824,-0.025,-0.498,5.68,-0.7,-0.46
575243.718000,0.833,-0.017,-0.533,-1.71,-0.12,-7.72
575243.765000,0.83,-0.02,-0.502,6.56,-1.5,3.27
575243.812000,0.84,-0.008,-0.531,2.32,2.69,-1.68
575243.859000,0.833,-0.043,-0.527,2.11,-2.14,2.23
575243.906000,0.838,-0.033,-0.495,4.15,0.24,1.74
575243.953000,0.843,-0.039,-0.54,1.95,-1.8,-0.24
575244.000000,0.821,-0.035,-0.501,2.99,2.17,1.53
575244.046000,0.816,-0.005,-0.527,0.61,0.92,-0.92
575244.093000,0.806,-0.047,-0.51,-3.69,-0.52,1.07
575244.140000,0.815,-0.04,-0.514,2.5,-0.31,1.95
575244.187000,0.819,-0.037,-0.557,0.7,-2.17,-5.8
575244.234000,0.835,0.02,-0.533,0.24,0.7,-6.81
575244.281000,0.842,-0.033,-0.588,6.13,0.76,4.73
575244.328000,0.844,-0.119,-0.648,26.15,9.31,11.57
575244.375000,0.8,-0.21,-0.809,89.42,27.74,37.23
575244.421000,0.774,-0.122,-0.844,105.75,56.49,0.15
575244.468000,0.689,0.016,-0.844,103.79,87.83,0.31
575244.515000,0.677,-0.023,-0.77,82.83,73.79,-6.87
575244.562000,0.72,-0.095,-0.583,102.39,64.58,15.08
575244.609000,0.802,-0.154,-0.573,99.46,45.41,9.37
575244.656000,0.84,-0.342,-0.431,70.68,78.98,12.82
575244.703000,0.92,-0.322,-0.185,45.47,74.04,-49.96
575244.750000,0.89,-0.167,-0.048,36.38,103.76,-66.87
575244.796000,0.918,-0.084,0.291,-2.75,104.4,-64.76
575244.843000,0.871,-0.036,0.464,-38.45,103.82,-66.44
575244.890000,0.871,-0.033,0.581,-62.23,67.69,-40.41
575244.937000,0.756,0.052,0.633,-44.01,73.34,-16.63
575244.984000,0.623,0.102,0.846,-61.68,56.15,13.12
575245.031000,0.762,-0.221,0.786,-56.0,34.88,70.28
575245.078000,0.929,-0.555,0.743,-41.29,6.78,35.58
575245.125000,0.998,-0.486,0.615,-16.69,5.13,-22.89
575245.171000,0.968,-0.324,0.577,18.65,11.63,-26.67
575245.218000,0.889,-0.197,0.501,36.07,18.83,-26.03
575245.281000,0.837,-0.07,0.464,19.75,14.31,-34.49
575245.328000,0.821,-0.037,0.425,24.96,4.15,-11.66
575245.375000,0.826,0.0,0.376,23.22,8.33,-1.07
575245.421000,0.822,-0.025,0.385,9.49,5.01,5.31
575245.468000,0.824,-0.031,0.44,6.71,1.25,8.79
575245.515000,0.844,-0.095,0.451,4.49,-0.37,14.95
575245.562000,0.861,-0.131,0.491,2.23,-9.74,15.59
575245.609000,0.895,-0.157,0.444,9.83,-9.34,14.37
575245.656000,0.916,-0.135,0.44,11.99,-7.39,7.39
575245.703000,0.918,-0.115,0.422,14.22,-3.33,11.93
575245.750000,0.922,-0.163,0.401,15.38,0.67,15.14
575245.796000,0.921,-0.156,0.369,13.15,-0.49,4.64
575245.843000,0.889,-0.085,0.396,9.4,0.92,-1.16
575245.890000,0.882,-0.105,0.397,5.28,-4.12,6.13
575245.937000,0.87,-0.115,0.413,3.05,-0.18,5.52
575245.984000,0.887,-0.15,0.416,1.56,-3.48,9.55
575246.031000,0.899,-0.152,0.423,5.55,-2.66,8.39
575246.078000,0.897,-0.139,0.427,-1.5,-4.06,2.96
575246.125000,0.915,-0.138,0.393,-3.66,-1.28,2.32
575246.171000,0.896,-0.125,0.422,0.89,1.19,5.37
575246.218000,0.876,-0.15,0.421,-2.53,0.06,5.71
575246.265000,0.879,-0.163,0.417,-5.28,-2.17,-1.43
575246.312000,0.853,-0.172,0.421,-13.4,-1.4,-0.52
575246.359000,0.872,-0.197,0.419,3.23,-10.07,-3.85
575246.406000,0.882,-0.183,0.392,0.73,-3.14,-12.7
575246.453000,0.903,-0.145,0.451,0.85,0.58,-10.16
575246.500000,0.878,-0.185,0.448,-3.17,4.49,-17.03
575246.546000,0.866,-0.194,0.503,0.24,1.04,-41.02
575246.593000,0.865,-0.03,0.614,15.14,6.99,-14.22
575246.640000,0.826,-0.027,0.705,20.39,-5.71,27.71
575246.687000,0.785,-0.148,0.807,34.52,-16.6,44.65
575246.734000,0.857,-0.021,0.914,0.31,-34.79,21.79
575246.781000,0.908,0.133,0.889,-13.34,-55.18,11.11
575246.828000,0.966,0.059,0.953,-43.58,-56.0,12.12
575246.875000,0.836,0.034,0.733,-28.78,-52.25,8.33
575246.921000,0.627,-0.069,0.434,-99.98,-115.09,-13.61
575246.968000,0.536,-0.088,-0.16,-112.06,-164.07,-17.61
575247.015000,0.246,0.2,-0.601,-152.75,-208.23,-82.46
575247.062000,0.126,0.657,-1.674,-227.45,-310.4,-102.3
575247.109000,0.846,0.478,-2.2,-198.64,-197.64,2.35
575247.156000,1.074,-1.382,-0.769,103.24,-11.78,335.52
575247.203000,0.9,-0.288,-0.916,-32.75,29.66,-126.56
575247.250000,0.463,0.62,-0.077,13.7,29.33,-78.55
575247.296000,0.783,0.211,-0.608,42.24,-21.97,63.94
575247.343000,0.811,-0.06,-0.486,-4.39,-9.16,-9.98
575247.390000,0.92,0.052,-0.701,19.93,-0.15,0.79
575247.437000,0.731,0.125,-0.446,8.45,0.34,-17.37
575247.484000,0.815,0.027,-0.626,13.82,-6.78,12.63
575247.531000,0.78,0.003,-0.483,4.03,-1.01,3.48
575247.578000,0.799,0.017,-0.566,-4.03,-3.85,-7.26
575247.625000,0.816,0.013,-0.542,3.11,-3.08,-0.73
575247.671000,0.815,0.034,-0.525,6.44,-2.69,0.0
575247.718000,0.833,0.035,-0.569,-2.87,-4.03,-7.11
575247.765000,0.843,0.01,-0.537,10.19,-8.09,2.41
575247.812000,0.827,0.0,-0.573,4.09,-5.01,-7.97
575247.859000,0.855,-0.01,-0.647,-1.86,-0.76,-6.04
575247.906000,0.815,0.06,-0.551,4.15,10.74,-7.48
575247.953000,0.809,0.051,-0.563,-2.23,2.41,0.18
575248.000000,0.819,0.017,-0.523,1.25,4.58,7.26
575248.046000,0.796,0.004,-0.556,0.31,1.01,4.36
575248.093000,0.81,-0.051,-0.531,-2.75,1.1,1.62
575248.140000,0.789,-0.011,-0.521,2.2,2.96,-2.56
575248.187000,0.805,-0.02,-0.556,0.67,-1.13,-4.24
575248.234000,0.816,0.0,-0.53,1.13,2.11,-0.06
575248.281000,0.806,0.018,-0.542,1.4,-0.49,-4.94
575248.328000,0.853,0.007,-0.547,-0.46,1.01,-2.35
575248.375000,0.818,0.053,-0.53,1.37,4.3,-4.97
575248.421000,0.802,0.058,-0.529,-2.72,8.12,-4.52
575248.468000,0.824,0.025,-0.515,-0.06,0.58,1.83
575248.515000,0.822,0.055,-0.524,7.54,5.04,2.59
575248.562000,0.815,-0.002,-0.544,-3.05,-2.11,-3.88
575248.609000,0.832,0.014,-0.509,0.31,4.85,-2.5
575248.656000,0.811,0.011,-0.525,1.74,2.08,-2.04
575248.703000,0.833,0.005,-0.528,2.04,-0.61,-1.74
575248.750000,0.817,0.016,-0.524,4.79,3.39,1.8
575248.796000,0.817,0.017,-0.509,3.3,-0.12,-3.11
575248.843000,0.843,0.0,-0.552,2.84,-1.43,0.98
575248.890000,0.843,0.054,-0.629,18.1,2.26,4.79
575248.937000,0.873,-0.005,-0.7,36.38,6.84,22.8
575248.984000,0.864,-0.052,-0.793,86.46,39.34,38.45
575249.031000,0.824,-0.146,-0.963,162.54,58.93,45.17
575249.078000,0.861,-0.113,-1.053,155.83,96.38,13.25
575249.125000,0.731,-0.158,-0.894,167.24,128.82,-5.65
575249.171000,0.685,-0.203,-0.514,110.42,117.77,-22.92
575249.218000,0.763,-0.252,-0.204,108.46,111.27,-13.03
575249.265000,0.804,-0.146,-0.058,75.69,89.97,-52.77
575249.312000,0.807,-0.065,0.188,45.69,85.42,-53.56
575249.359000,0.872,-0.023,0.293,20.2,92.14,-40.86
575249.406000,0.7,-0.126,0.484,-7.87,88.29,-19.71
575249.453000,0.722,-0.156,0.502,-12.76,84.66,-32.84
575249.500000,0.633,-0.135,0.607,-18.19,62.87,-62.5
575249.546000,0.697,-0.114,0.68,-51.79,38.3,-53.8
575249.593000,0.618,0.006,0.797,-31.31,20.84,-34.64
575249.640000,0.591,0.456,0.792,-50.26,-25.3,-65.89
575249.687000,0.788,0.527,0.699,-73.46,-55.33,-5.8
575249.734000,1.018,0.118,0.399,-57.13,-42.97,69.34
575249.796000,1.231,-0.444,0.557,-54.87,-8.58,44.25
575249.843000,1.13,-0.366,0.552,-23.16,12.91,-12.57
575249.890000,0.988,-0.234,0.493,0.92,15.81,-16.69
575249.937000,0.933,-0.178,0.358,29.69,24.02,-6.87
575249.984000,0.841,-0.085,0.379,18.04,20.6,-11.05
575250.031000,0.807,-0.089,0.395,13.49,19.44,-5.04
575250.078000,0.814,-0.048,0.385,2.01,4.73,-7.72
575250.125000,0.839,-0.026,0.397,-0.43,-2.47,-4.21
575250.171000,0.866,-0.037,0.386,-3.39,-4.58,7.45
575250.218000,0.9,-0.112,0.433,-7.11,-7.2,9.95
575250.265000,0.904,-0.13,0.418,-7.02,-0.89,2.81
575250.312000,0.915,-0.127,0.423,-3.17,-3.27,1.59
575250.359000,0.91,-0.113,0.443,-2.66,-1.16,0.98
575250.406000,0.886,-0.086,0.43,-1.71,2.69,-2.04
575250.453000,0.862,-0.109,0.467,-1.13,-1.59,1.92
575250.500000,0.819,-0.178,0.587,-2.66,-9.4,3.54
575250.546000,0.875,-0.093,0.268,-43.7,-13.89,-18.65
575250.593000,0.847,-0.139,0.571,22.0,-18.56,1.5
575250.640000,0.825,-0.193,0.512,27.38,-13.64,14.59
575250.687000,0.868,-0.295,0.765,39.8,-14.89,18.86
575250.750000,0.956,-0.147,0.653,60.52,-30.95,2.23
575250.796000,0.982,0.099,0.74,40.19,-34.39,-13.76
575250.843000,0.928,0.247,0.718,25.94,-36.74,-7.02
575250.890000,0.817,0.158,0.684,17.09,-56.06,12.91
575250.937000,0.759,0.187,0.449,-6.81,-63.57,15.29
575250.984000,0.791,0.017,0.243,-53.96,-111.18,34.36
575251.031000,0.781,-0.14,-0.23,-106.05,-143.28,2.62
575251.078000,0.594,0.072,-0.631,-105.2,-166.69,-9.0
575251.125000,0.52,0.173,-0.81,-111.91,-191.05,5.71
575251.171000,0.105,0.259,-1.048,-181.8,-192.94,-41.38
575251.218000,0.324,0.434,-1.292,-161.41,-187.32,17.98
575251.265000,1.089,-0.777,-1.311,-67.96,-96.35,116.98
575251.312000,0.895,-0.2,-0.735,-20.69,50.39,-81.55
575251.359000,0.768,0.433,-0.489,50.94,29.24,-66.32
575251.406000,0.766,0.288,-0.501,29.24,-2.44,31.31
575251.453000,0.91,-0.033,-0.686,-8.36,-18.77,25.97
575251.515000,0.819,-0.091,-0.588,3.72,3.48,-14.31
575251.562000,0.748,0.106,-0.511,2.75,10.22,-7.23
575251.609000,0.71,0.037,-0.543,6.32,4.18,1.53
575251.656000,0.811,-0.046,-0.561,-4.36,0.03,-8.88
575251.703000,0.782,0.099,-0.517,9.8,2.17,-10.86
575251.750000,0.749,0.103,-0.536,3.75,-5.22,-10.07
575251.796000,0.787,0.105,-0.545,-3.05,-4.61,-5.16
575251.843000,0.773,0.105,-0.514,-7.11,-3.39,-1.74
575251.890000,0.825,0.057,-0.63,-5.31,-9.77,5.74
575251.937000,0.832,0.012,-0.599,-2.84,-0.49,4.18
575251.984000,0.782,0.043,-0.569,3.36,1.13,0.06
575252.031000,0.788,0.064,-0.589,10.5,-3.66,6.65
575252.078000,0.771,0.052,-0.576,10.53,-0.95,9.86
575252.125000,0.796,0.032,-0.633,3.05,-5.65,0.31
575252.171000,0.789,0.007,-0.557,-0.79,-0.58,5.49
575252.218000,0.781,0.023,-0.6,2.29,-1.04,1.43
575252.265000,0.799,0.004,-0.592,-1.4,-1.65,5.34
575252.312000,0.797,0.005,-0.614,6.16,1.65,10.68
575252.359000,0.761,0.035,-0.565,2.78,1.37,5.16
575252.406000,0.839,0.013,-0.678,-6.96,12.18,2.23
575252.453000,0.791,0.004,-0.459,4.49,16.3,3.39
575252.500000,0.851,0.025,-0.658,-1.4,-1.65,-5.83
575252.546000,0.806,0.042,-0.523,3.2,0.58,6.5
575252.593000,0.77,0.005,-0.595,0.03,-12.85,5.46
575252.656000,0.762,0.0,-0.574,-6.96,-12.36,0.31
575252.703000,0.781,-0.018,-0.583,-6.53,0.89,-0.46
575252.750000,0.779,-0.026,-0.606,-2.38,2.47,0.37
575252.796000,0.794,-0.032,-0.597,-2.72,3.72,-7.32
575252.843000,0.798,0.025,-0.564,0.27,2.9,-2.99
575252.890000,0.814,0.02,-0.611,-0.21,8.03,-4.55
575252.937000,0.819,-0.017,-0.59,-0.09,8.18,-4.12
575252.984000,0.83,0.048,-0.577,4.91,15.02,-3.42
575253.031000,0.812,0.075,-0.591,-2.01,8.0,6.44
575253.078000,0.781,0.022,-0.475,-5.68,23.74,18.19
575253.125000,0.779,0.03,-0.504,-2.29,-5.71,2.47
575253.171000,0.774,-0.012,-0.499,-1.37,-2.99,3.14
575253.218000,0.785,0.013,-0.552,3.45,-6.32,-1.71
575253.265000,0.794,-0.016,-0.628,12.3,-7.51,9.43
575253.312000,0.883,-0.026,-0.77,37.54,3.57,16.42
575253.359000,0.901,-0.068,-0.828,72.82,33.02,22.98
575253.406000,0.847,-0.076,-0.844,92.93,50.97,15.99
575253.453000,0.761,0.125,-0.974,82.77,68.91,-17.21
575253.500000,0.702,0.01,-0.777,91.53,71.78,0.61
575253.546000,0.667,-0.151,-0.902,124.0,34.09,-14.4
575253.593000,0.721,-0.247,-0.608,75.17,99.25,-41.87
575253.640000,0.724,-0.141,-0.315,63.14,60.06,-70.07
575253.687000,0.801,-0.104,-0.205,65.34,99.92,-55.64
575253.734000,0.836,-0.004,0.112,45.35,99.7,-63.48
575253.781000,0.816,0.116,0.159,3.3,109.01,-61.37
575253.828000,0.747,0.077,0.333,-42.76,125.34,-18.31
575253.875000,0.662,-0.092,0.557,-58.78,110.23,11.02
575253.921000,0.686,-0.209,0.672,-53.19,61.74,19.71
575253.968000,0.748,0.125,0.658,-44.98,45.38,-6.87
575254.015000,0.792,0.329,0.828,-72.51,36.65,0.55
575254.062000,1.059,-0.181,1.009,-54.41,7.6,85.85
575254.109000,1.166,-0.554,0.821,-38.64,-31.28,66.9
575254.156000,1.146,-0.502,0.339,2.41,-7.11,-46.88
575254.203000,1.046,-0.337,0.325,15.75,9.22,-53.47
575254.250000,0.83,-0.093,0.34,35.62,41.57,-23.99
575254.296000,0.767,0.016,0.374,22.19,35.25,-24.96
575254.343000,0.739,0.04,0.419,15.26,15.32,-8.82
575254.390000,0.795,0.007,0.433,6.84,1.46,10.59
575254.437000,0.853,-0.071,0.441,-5.22,-6.41,13.0
575254.484000,0.946,-0.186,0.413,12.42,-11.84,23.04
575254.531000,0.96,-0.167,0.396,6.9,-7.45,8.85
575254.593000,0.952,-0.075,0.415,15.35,-9.03,-3.78
575254.640000,0.936,-0.076,0.361,5.43,1.74,-3.85
575254.687000,0.885,-0.104,0.398,6.87,5.55,-3.2
575254.734000,0.86,-0.087,0.4,2.32,3.72,-10.53
575254.781000,0.833,-0.016,0.428,-0.7,3.42,-6.5
575254.828000,0.84,-0.031,0.435,-1.1,-3.11,3.57
575254.875000,0.89,-0.076,0.423,-4.97,-10.04,6.93
575254.921000,0.882,-0.129,0.485,6.41,-5.13,12.48
575254.968000,0.897,-0.174,0.526,9.55,-5.31,10.04
575255.015000,0.92,-0.191,0.665,29.18,-1.8,6.01
575255.062000,0.942,-0.157,0.734,56.03,6.53,9.86
575255.109000,0.959,-0.164,0.827,67.14,12.02,16.14
575255.156000,0.941,-0.077,0.72,71.96,9.49,26.55
575255.203000,0.822,0.193,0.873,54.84,1.92,-17.61
575255.250000,0.676,0.328,0.799,6.87,-34.0,-0.34
575255.296000,0.654,0.2,0.682,3.94,-30.37,36.74
575255.343000,0.705,0.06,0.521,-58.47,-77.73,36.56
575255.390000,0.705,0.022,0.271,-85.3,-114.57,26.18
575255.437000,0.633,-0.021,-0.011,-118.96,-151.1,-0.06
575255.484000,0.451,0.185,-0.458,-135.5,-197.82,-15.11
575255.531000,0.424,0.441,-1.167,-135.47,-200.72,0.4
575255.578000,0.202,0.402,-1.167,-158.24,-191.75,25.94
575255.625000,0.652,-0.021,-1.219,-176.15,-170.69,70.89
575255.671000,1.22,-0.815,-1.266,-96.9,-111.15,79.93
575255.718000,1.174,-0.692,-1.098,-8.82,9.55,-25.33
575255.765000,0.88,-0.002,-0.702,39.46,33.14,-124.85
575255.812000,0.752,0.361,-0.525,14.92,15.02,-36.56
575255.859000,0.899,0.151,-0.711,26.06,0.89,27.74
575255.906000,0.764,0.039,-0.561,-1.68,6.99,-16.6
575255.953000,0.779,0.119,-0.623,-0.31,-3.27,-21.24
575256.000000,0.666,0.088,-0.449,-2.14,-1.68,-12.79
575256.046000,0.736,0.114,-0.546,3.45,-11.41,2.87
575256.093000,0.728,0.045,-0.531,1.86,-4.82,17.4
575256.140000,0.8,0.052,-0.62,-7.57,-6.71,4.64
575256.187000,0.793,0.025,-0.583,-3.14,-1.68,-3.88
575256.234000,0.801,0.057,-0.629,4.76,-1.71,4.0
575256.281000,0.764,0.103,-0.508,7.39,3.63,3.97
575256.328000,0.776,0.074,-0.585,4.76,-6.32,18.19
575256.375000,0.813,-0.025,-0.61,4.88,-5.95,21.03
575256.421000,0.78,-0.014,-0.589,1.34,3.2,3.97
575256.468000,0.785,-0.029,-0.603,0.18,-1.07,4.67
575256.515000,0.793,-0.001,-0.58,1.62,-1.07,2.56
575256.562000,0.781,-0.036,-0.586,1.4,-3.3,2.14
575256.609000,0.794,-0.037,-0.615,5.98,-1.4,7.48
575256.656000,0.74,0.03,-0.533,9.64,-1.19,5.58
575256.703000,0.798,-0.003,-0.596,8.76,-13.09,8.06
575256.750000,0.813,0.003,-0.691,-9.22,-4.33,0.24
575256.796000,0.782,-0.09,-0.616,-0.98,0.37,7.78
575256.843000,0.788,-0.066,-0.634,-7.2,5.13,-6.32
575256.890000,0.756,-0.036,-0.577,0.09,2.87,-1.04
575256.937000,0.768,-0.042,-0.585,-1.83,1.8,-5.58
575256.984000,0.775,0.007,-0.65,-9.77,5.55,-5.77
575257.031000,0.761,-0.025,-0.55,3.91,-0.61,-9.92
575257.078000,0.793,0.007,-0.612,2.72,1.77,-1.68
575257.125000,0.778,0.018,-0.617,3.23,4.97,0.67
575257.171000,0.782,-0.012,-0.624,-1.83,-0.24,-4.55
575257.218000,0.786,0.008,-0.569,0.64,4.06,-1.13
575257.265000,0.777,0.005,-0.595,-2.11,2.11,-1.71
575257.312000,0.796,-0.021,-0.59,1.25,-2.26,3.72
575257.359000,0.784,-0.014,-0.603,1.95,1.77,-1.01
575257.406000,0.775,-0.007,-0.572,0.06,2.41,-2.41
575257.453000,0.756,0.013,-0.587,2.35,1.01,0.85
575257.500000,0.819,0.029,-0.66,13.12,-4.18,2.2
575257.546000,0.951,0.034,-0.847,23.07,7.84,5.16
575257.593000,0.99,-0.018,-0.91,62.26,38.03,13.03
575257.640000,0.897,-0.007,-0.937,82.25,67.42,-6.04
575257.687000,0.761,0.033,-0.913,87.68,85.91,-17.85
575257.734000,0.689,-0.027,-0.817,82.06,98.48,-9.34
575257.781000,0.631,-0.147,-0.641,79.44,77.82,-7.17
575257.828000,0.737,-0.178,-0.731,107.06,91.65,-24.41
575257.875000,0.662,-0.152,-0.457,62.62,117.8,-57.8
575257.921000,0.709,-0.12,-0.271,47.06,121.04,-42.66
575257.968000,0.765,-0.115,-0.009,35.22,122.53,-48.04
575258.015000,0.699,-0.007,0.262,12.54,127.54,-70.19
575258.062000,0.658,0.126,0.468,-9.55,110.45,-77.7
575258.109000,0.655,0.176,0.628,-30.4,93.94,-53.65
575258.156000,0.698,0.118,0.731,-52.43,28.6,-6.53
575258.203000,0.724,0.1,0.744,-40.74,13.92,9.09
575258.250000,0.683,0.271,0.739,-18.77,7.87,4.3
575258.296000,0.718,0.33,0.79,-67.35,-10.68,16.42
575258.343000,1.007,-0.04,0.498,-44.1,-3.51,72.05
575258.390000,1.144,-0.31,0.69,-36.5,13.21,55.02
575258.437000,1.095,-0.295,0.689,-3.3,13.89,13.61
575258.484000,1.049,-0.208,0.572,9.86,-6.04,-17.43
575258.531000,0.941,-0.044,0.372,9.8,3.27,-33.66
575258.578000,0.895,-0.022,0.352,18.74,11.17,-17.85
575258.625000,0.813,-0.02,0.382,9.09,15.66,-14.31
575258.671000,0.771,0.045,0.446,5.4,8.55,-4.64
575258.718000,0.804,0.02,0.457,10.9,1.22,14.1
575258.765000,0.853,0.0,0.41,-0.76,-10.56,7.51
575258.828000,0.9,-0.013,0.427,4.55,-10.5,16.88
575258.875000,0.935,-0.07,0.404,7.72,-9.4,12.48
575258.921000,0.943,-0.069,0.4,3.14,-5.01,2.26
575258.984000,0.95,-0.036,0.367,1.59,-3.3,-4.3
575259.031000,0.93,0.0,0.356,-0.15,0.76,-6.71
575259.078000,0.911,-0.015,0.373,3.45,2.26,-3.94
575259.125000,0.885,-0.015,0.389,5.83,3.72,0.64
575259.171000,0.858,-0.026,0.439,6.2,0.67,1.34
575259.218000,0.847,-0.029,0.492,10.22,-2.75,4.49
575259.265000,0.857,-0.048,0.501,15.26,-3.75,9.64
575259.312000,0.901,-0.085,0.618,27.65,-0.85,16.42
575259.359000,1.045,-0.077,0.534,37.17,-13.43,-4.18
575259.406000,1.044,-0.03,0.706,41.63,37.02,-10.1
575259.453000,0.904,-0.072,0.759,53.41,36.13,5.4
575259.500000,0.729,0.03,0.916,41.23,32.93,11.51
575259.546000,0.664,0.219,0.825,27.38,-23.35,6.01
575259.593000,0.639,0.112,0.935,23.83,-26.58,44.65
575259.640000,0.702,-0.01,0.651,-20.63,-72.54,47.36
575259.687000,0.665,0.051,0.548,-13.09,-84.29,28.11
575259.734000,0.673,-0.019,0.37,-76.17,-132.6,17.46
575259.781000,0.637,0.157,-0.133,-122.75,-184.06,-21.88
575259.828000,0.385,0.488,-0.65,-141.48,-218.21,-39.34
575259.875000,0.264,0.526,-1.145,-176.58,-255.23,-34.7
575259.921000,0.396,0.476,-1.659,-168.89,-227.3,28.17
575259.968000,1.144,-0.908,-1.235,-50.29,-126.96,238.56
575260.015000,1.03,-0.519,-1.001,5.71,35.31,-70.89
575260.062000,0.524,0.451,-0.288,8.09,51.73,-113.59
575260.109000,0.713,0.3,-0.354,30.37,-21.24,27.01
575260.156000,0.911,-0.091,-0.708,8.42,-15.99,26.43
575260.203000,0.909,-0.029,-0.663,4.27,-5.25,-15.63
575260.250000,0.835,0.099,-0.552,11.14,5.1,-2.75
575260.296000,0.812,0.043,-0.562,-1.59,1.01,-3.02
575260.343000,0.813,-0.038,-0.554,3.17,-2.53,9.4
575260.390000,0.815,-0.057,-0.509,1.74,2.01,-2.32
575260.437000,0.798,0.029,-0.521,4.0,-3.02,-5.19
575260.484000,0.81,-0.03,-0.537,-2.78,-0.49,-3.45
575260.531000,0.862,0.015,-0.53,5.13,2.99,-6.68
575260.578000,0.836,0.002,-0.516,10.71,1.1,1.22
575260.625000,0.826,-0.017,-0.536,0.43,-0.85,6.35
575260.671000,0.822,-0.061,-0.516,5.31,-3.2,14.68
575260.718000,0.814,-0.074,-0.553,-0.15,-1.37,4.39
575260.765000,0.799,-0.063,-0.505,-0.12,1.83,0.76
575260.812000,0.796,-0.004,-0.483,0.0,1.19,1.56
575260.859000,0.829,-0.068,-0.552,-2.47,-6.59,5.77
575260.906000,0.875,-0.087,-0.544,2.01,-5.04,11.08
575260.953000,0.847,-0.067,-0.554,3.91,1.01,-0.79
575261.000000,0.855,-0.074,-0.563,2.14,5.25,3.48
575261.046000,0.851,-0.058,-0.555,-2.72,3.02,-7.11
575261.093000,0.815,-0.033,-0.501,2.53,7.45,-2.56
575261.140000,0.816,-0.039,-0.541,-2.44,2.53,-10.25
575261.187000,0.825,-0.019,-0.501,-1.56,0.58,2.9
575261.234000,0.793,-0.051,-0.47,4.88,-1.28,3.05
575261.281000,0.83,-0.054,-0.534,-6.62,-5.55,-5.07
575261.328000,0.824,-0.038,-0.496,2.01,-1.86,-2.62
575261.375000,0.83,-0.034,-0.567,-2.44,-0.15,-5.1
575261.421000,0.836,-0.045,-0.535,-1.4,-0.73,1.98
575261.468000,0.812,-0.008,-0.521,0.95,3.33,-0.4
575261.515000,0.828,-0.034,-0.543,-4.64,1.43,-2.9
575261.562000,0.83,-0.024,-0.501,0.4,-2.35,0.73
575261.609000,0.833,-0.029,-0.581,3.57,-0.21,0.24
575261.656000,0.885,-0.011,-0.624,26.06,2.9,16.57
575261.718000,0.966,-0.021,-0.733,48.37,23.26,10.1
575261.765000,0.932,-0.082,-0.753,83.8,46.36,9.92
575261.812000,0.785,-0.009,-0.872,83.13,72.12,-20.11
575261.859000,0.82,-0.022,-0.787,72.42,65.25,-17.79
575261.906000,0.839,-0.156,-0.835,47.12,98.54,-24.63
575261.953000,0.775,-0.222,-0.573,115.48,86.7,1.89
575262.000000,0.738,-0.163,-0.495,66.44,115.82,-48.71
575262.046000,0.691,-0.053,0.025,68.91,119.88,-57.95
575262.093000,0.717,0.048,0.252,30.0,102.45,-65.83
575262.140000,0.778,-0.02,0.46,31.92,82.92,-14.56
575262.187000,0.827,0.005,0.367,-6.26,47.0,-30.85
575262.234000,0.893,-0.035,0.459,2.81,52.92,-12.94
575262.281000,0.88,-0.021,0.418,-1.04,37.14,-24.96
575262.328000,0.824,0.008,0.371,-4.55,48.25,-25.42
575262.390000,0.774,0.04,0.532,-5.68,37.48,-9.55
575262.437000,0.782,0.052,0.524,0.98,0.95,3.3
575262.484000,0.848,0.036,0.496,-13.73,8.91,17.55
575262.531000,0.849,0.17,0.484,-4.58,0.09,0.92
575262.578000,0.914,0.305,0.373,-35.37,11.2,11.6
575262.625000,0.954,0.085,0.581,-41.54,37.02,75.75
575262.671000,0.966,-0.224,0.749,-37.93,26.49,56.06
575262.734000,0.991,-0.419,0.719,-6.5,-18.01,13.73
575262.781000,0.971,-0.219,0.372,8.85,-22.83,-28.14
575262.828000,0.934,-0.152,0.33,12.73,-6.16,-20.69
575262.875000,0.901,-0.174,0.33,25.57,8.73,-0.15
575262.921000,0.834,-0.132,0.364,5.49,23.13,-18.07
575262.968000,0.714,0.026,0.533,8.58,12.09,-3.88
575263.015000,0.763,0.037,0.473,9.77,-11.9,17.12
575263.062000,0.882,-0.125,0.392,-2.9,-22.13,22.43
575263.125000,0.937,-0.244,0.443,15.35,-6.87,35.1
575263.171000,0.856,-0.231,0.632,9.46,13.21,14.47
575263.218000,0.678,-0.245,0.983,38.06,26.18,44.34
575263.265000,0.715,-0.271,1.159,92.93,-26.76,66.59
575263.312000,0.91,-0.095,0.711,84.23,-103.64,-5.07
575263.359000,1.017,0.098,0.495,49.68,-87.44,-38.79
575263.406000,0.877,0.285,0.38,0.58,-83.93,-35.74
575263.453000,0.825,0.227,0.212,-17.15,-117.47,-3.3
575263.500000,0.784,-0.003,0.072,-56.58,-131.14,63.39
575263.546000,0.762,-0.102,-0.179,-48.68,-141.27,71.72
575263.609000,0.814,-0.343,-0.375,-136.17,-74.19,25.51
575263.656000,0.902,-0.23,-0.536,-166.88,-27.38,-4.52
575263.703000,0.796,-0.101,-0.528,-134.34,-61.86,-6.38
575263.750000,0.841,-0.101,-0.731,-112.46,-102.45,-3.02
575263.796000,0.888,-0.034,-0.643,-107.64,-74.16,-18.34
575263.843000,0.721,0.098,-0.75,-59.85,-95.03,11.26
575263.890000,0.783,-0.039,-0.749,-65.52,-49.96,38.24
575263.937000,0.773,-0.064,-0.54,-40.62,-27.34,47.4
575263.984000,0.74,-0.115,-0.7,-36.65,-34.18,32.35
575264.031000,0.786,-0.103,-0.583,-17.88,-9.16,3.69
575264.078000,0.827,-0.079,-0.573,9.4,-4.58,15.11
575264.125000,0.768,-0.101,-0.58,12.24,0.55,3.69
575264.171000,0.775,-0.027,-0.617,-0.67,1.19,-11.29
575264.218000,0.779,-0.025,-0.598,7.84,1.01,-5.25
575264.265000,0.823,-0.014,-0.685,6.47,0.34,-0.09
575264.312000,0.786,-0.011,-0.558,15.32,6.78,4.24
575264.359000,0.867,0.012,-0.65,12.21,7.87,4.7
575264.406000,0.851,-0.041,-0.498,9.8,20.97,8.73
575264.453000,0.771,-0.086,-0.506,21.21,11.32,19.75
575264.500000,0.778,-0.076,-0.561,21.61,13.79,13.76
575264.546000,0.772,-0.13,-0.56,13.58,14.13,16.94
575264.593000,0.785,-0.169,-0.531,4.73,2.9,3.02
575264.640000,0.788,-0.193,-0.463,5.01,2.41,4.15
575264.687000,0.804,-0.241,-0.466,17.06,0.7,10.56
575264.734000,0.778,-0.228,-0.527,23.32,6.56,2.17
575264.781000,0.758,-0.204,-0.41,23.53,13.95,-2.14
575264.828000,0.843,-0.181,-0.503,6.53,4.94,-4.36
575264.875000,0.875,-0.198,-0.472,-11.75,8.91,-16.39
575264.921000,0.887,-0.146,-0.471,-3.11,2.14,-11.69
575264.968000,0.901,-0.12,-0.514,-13.79,-0.4,-14.92
575265.015000,0.888,-0.099,-0.48,-16.21,3.81,-11.75
575265.062000,0.865,-0.097,-0.483,-18.65,1.98,-12.05
575265.109000,0.842,-0.067,-0.485,-26.67,-4.49,-16.79
575265.156000,0.863,-0.078,-0.5,-20.75,-2.01,-6.26
575265.203000,0.823,-0.081,-0.451,-22.98,-3.48,-6.16
575265.250000,0.805,-0.087,-0.455,-15.05,-12.88,4.43
575265.296000,0.849,-0.146,-0.543,-2.17,-11.81,16.39
575265.343000,0.796,-0.109,-0.505,-8.33,-5.07,0.46
575265.390000,0.8,-0.068,-0.503,-10.19,-6.23,-1.34
575265.437000,0.798,-0.084,-0.556,-5.98,-10.65,11.63
575265.484000,0.822,-0.147,-0.542,-12.76,-6.53,4.61
575265.531000,0.805,-0.101,-0.552,-9.67,0.27,-15.81
575265.578000,0.836,-0.06,-0.568,1.31,4.12,-12.67
575265.625000,0.836,-0.047,-0.531,-0.89,8.67,-15.59
575265.671000,0.829,0.029,-0.562,-1.4,10.35,-8.09
575265.718000,0.797,0.01,-0.532,-9.31,15.32,-5.52
575265.765000,0.82,-0.003,-0.463,-5.83,13.64,7.97
575265.812000,0.824,-0.016,-0.495,-11.72,4.36,3.72
575265.859000,0.814,-0.042,-0.467,-6.38,-6.04,4.27
575265.906000,0.823,0.009,-0.537,-9.98,-5.52,-2.72
575265.953000,0.824,0.016,-0.514,-6.87,-3.3,4.91
575266.000000,0.87,-0.005,-0.607,1.25,3.91,4.85
575266.046000,0.835,-0.018,-0.509,1.01,2.72,4.94
575266.093000,0.829,0.035,-0.556,10.53,8.24,6.62
575266.140000,0.848,0.008,-0.534,-13.25,1.53,-7.51
575266.187000,0.899,-0.099,-0.52,-4.09,0.31,12.85
575266.234000,0.9,-0.146,-0.541,10.56,6.99,14.5
575266.281000,0.808,-0.098,-0.492,1.89,10.5,-8.73
575266.328000,0.803,-0.066,-0.46,9.06,7.75,-9.86
575266.375000,0.821,-0.058,-0.547,18.07,0.37,-4.91
575266.421000,0.927,-0.021,-0.686,35.46,19.62,-13.25
575266.468000,0.934,-0.029,-0.846,58.05,44.74,-21.12
575266.515000,0.82,0.01,-0.989,100.1,81.76,-12.7
575266.562000,0.651,0.083,-0.871,78.62,89.69,-45.26
575266.609000,0.636,-0.004,-0.669,103.06,86.43,-4.33
575266.656000,0.636,0.012,-0.556,78.52,64.52,-20.39
575266.718000,0.777,-0.073,-0.404,99.67,72.63,-30.09
575266.765000,0.843,0.026,-0.164,80.75,92.47,-70.93
575266.812000,0.815,0.149,0.09,61.98,107.06,-71.44
575266.859000,0.856,0.139,0.32,26.18,101.47,-53.07
575266.906000,0.914,0.178,0.469,-17.7,78.1,-71.35
575266.953000,0.869,0.173,0.598,-47.36,44.31,-56.79
575267.000000,0.851,0.401,0.554,-36.87,27.1,-53.41
575267.046000,0.649,0.641,0.721,-90.4,-19.59,-28.66
575267.093000,0.783,0.248,0.351,-121.37,-54.75,72.05
575267.140000,0.985,-0.117,0.403,-93.11,-16.02,104.25
575267.187000,1.063,-0.323,0.589,-85.79,18.49,55.3
575267.250000,1.058,-0.257,0.734,-5.25,32.29,39.58
575267.296000,1.012,-0.191,0.537,13.03,28.38,2.93
575267.343000,0.964,-0.039,0.282,16.48,2.75,-25.88
575267.390000,0.907,0.036,0.223,9.98,1.92,-30.06
575267.437000,0.861,0.059,0.211,13.12,10.74,-4.73
575267.500000,0.872,-0.021,0.248,7.42,1.83,14.19
575267.546000,0.907,-0.04,0.337,0.95,10.77,14.95
575267.593000,0.955,-0.058,0.387,-4.36,4.76,13.67
575267.640000,1.0,-0.09,0.343,-4.3,0.85,8.48
575267.687000,0.98,-0.062,0.326,-9.22,1.98,-6.62
575267.734000,0.952,-0.027,0.323,-9.74,5.68,-6.96
575267.781000,0.893,-0.032,0.393,-16.08,-4.55,-3.42
575267.828000,0.878,-0.062,0.342,-42.33,-24.26,-31.4
575267.875000,0.912,-0.02,0.294,-30.98,-29.57,-38.45
575267.921000,0.961,-0.026,0.22,-14.89,-15.56,-4.58
575267.968000,0.993,0.004,0.211,6.1,-3.17,2.44
575268.015000,0.924,0.032,0.256,-8.21,2.59,3.81
575268.062000,0.916,0.005,0.282,11.35,-2.14,18.65
575268.109000,0.952,-0.023,0.228,5.25,-7.02,14.25
575268.156000,0.957,-0.05,0.25,5.46,0.37,10.53
575268.203000,0.979,-0.062,0.219,5.43,-1.56,8.18
575268.250000,0.965,-0.026,0.254,-0.7,6.53,-2.01
575268.296000,0.97,-0.041,0.271,7.26,3.6,3.54
575268.343000,0.946,-0.026,0.309,6.29,7.02,-2.96
575268.390000,0.928,-0.048,0.303,6.9,1.98,2.47
575268.437000,0.934,-0.043,0.258,9.0,3.11,4.79
575268.484000,0.932,-0.04,0.275,2.59,4.91,3.17
575268.531000,0.941,-0.04,0.273,3.14,2.69,3.91
575268.578000,0.942,-0.042,0.285,2.14,0.89,1.86
575268.625000,0.966,-0.058,0.268,1.07,-0.4,3.75
575268.671000,0.966,-0.062,0.273,-2.29,0.64,0.37
575268.718000,0.971,-0.071,0.267,-2.84,4.43,1.71
575268.765000,0.919,-0.065,0.326,-2.01,7.02,-0.76
575268.812000,0.873,-0.16,0.399,5.31,6.29,10.19
575268.859000,0.778,-0.273,0.633,27.31,15.29,29.33
575268.906000,0.818,-0.307,0.817,62.93,-7.42,34.64
575268.953000,0.97,-0.148,0.698,76.05,-29.82,8.03
575269.000000,1.043,-0.091,0.627,96.47,-37.75,9.58
575269.046000,0.88,0.116,0.622,79.47,-36.68,-50.14
575269.093000,0.832,0.188,0.57,24.29,-86.67,-33.39
575269.140000,0.892,0.198,0.283,49.32,-61.74,9.67
575269.187000,0.922,0.076,0.18,5.25,-82.34,37.54
575269.234000,0.948,-0.003,0.06,-12.97,-83.44,53.53
575269.281000,0.778,-0.161,-0.183,-22.8,-170.69,82.0
575269.328000,0.842,-0.148,-0.614,-76.36,-136.66,54.11
575269.375000,0.704,-0.061,-0.608,-83.62,-76.27,-12.54
575269.421000,0.839,0.129,-0.908,-87.65,-64.46,-12.48
575269.468000,0.655,0.19,-0.673,-105.11,-43.98,-38.45
575269.515000,0.586,0.211,-0.714,-63.48,-86.25,21.18
575269.562000,0.666,-0.011,-0.944,-49.65,-99.09,65.43
575269.609000,0.743,-0.107,-0.79,16.36,-32.53,60.06
575269.656000,0.776,0.058,-0.561,-22.95,-29.82,-5.1
575269.703000,0.776,-0.014,-0.6,6.13,-3.69,31.86
575269.750000,0.827,-0.112,-0.631,-2.96,-13.21,25.45
575269.796000,0.854,-0.006,-0.697,5.49,16.11,-16.24
575269.843000,0.739,-0.007,-0.565,16.3,15.99,-2.62
575269.890000,0.753,0.058,-0.575,-0.43,5.19,-17.0
575269.937000,0.79,0.075,-0.551,-0.43,1.37,-2.35
575269.984000,0.779,0.028,-0.595,-11.11,2.69,8.39
575270.031000,0.789,-0.023,-0.586,-12.85,1.04,6.96
575270.078000,0.819,0.007,-0.588,-9.98,9.7,4.33
575270.125000,0.815,-0.049,-0.554,-0.4,1.01,-3.17
575270.171000,0.851,-0.037,-0.636,28.57,11.84,-12.33
575270.218000,0.828,0.001,-0.554,8.21,20.66,-23.8
575270.265000,0.83,0.068,-0.562,10.28,9.46,-1.1
575270.312000,0.792,0.061,-0.477,-1.01,11.23,7.2
575270.359000,0.819,0.011,-0.501,-10.13,-2.2,8.15
575270.406000,0.807,-0.019,-0.526,-3.23,2.32,16.66
575270.453000,0.801,-0.07,-0.552,-4.15,-0.98,11.29
575270.500000,0.826,-0.079,-0.593,12.57,4.79,19.1
575270.546000,0.819,-0.074,-0.61,28.87,20.29,12.67
575270.593000,0.81,-0.116,-0.548,34.67,32.44,2.9
575270.640000,0.81,-0.001,-0.637,45.38,53.01,-35.22
575270.687000,0.831,-0.044,-0.571,35.86,45.26,-33.78
575270.734000,0.873,-0.067,-0.638,42.27,77.39,-12.63
575270.781000,0.852,-0.043,-0.694,47.43,78.22,-5.68
575270.828000,0.876,-0.139,-0.384,67.45,91.65,7.6
575270.875000,0.877,-0.089,-0.268,43.76,91.1,-6.41
575270.921000,0.874,-0.035,-0.072,56.98,72.02,-3.05
575270.968000,0.879,-0.068,0.034,32.41,66.07,-6.32
575271.015000,0.887,-0.028,0.139,22.83,55.39,-14.74
575271.062000,0.991,-0.066,0.008,15.47,28.08,-6.04
575271.109000,1.035,-0.075,0.122,20.97,43.7,-4.97
575271.156000,1.007,-0.132,0.07,16.51,27.31,0.06
575271.203000,1.019,-0.125,0.137,13.95,37.69,-12.73
575271.250000,0.984,-0.008,0.062,-4.43,45.93,-22.74
575271.296000,0.947,0.036,0.304,-5.07,60.34,-13.4
575271.343000,0.902,0.011,0.403,-5.98,28.5,-0.49
575271.390000,0.91,-0.069,0.409,-7.42,24.11,3.05
575271.437000,0.916,0.071,0.319,-21.73,-8.33,-25.57
575271.484000,0.9,0.111,0.161,-27.99,9.34,-21.88
575271.531000,0.869,-0.027,0.335,-66.47,23.01,-26.49
575271.578000,0.859,-0.075,0.369,-38.24,14.86,3.78
575271.625000,0.899,-0.215,0.452,-35.46,11.51,2.01
575271.671000,0.869,-0.041,0.496,-24.08,6.16,-22.1
575271.718000,0.98,0.031,0.465,-8.09,1.43,-8.09
575271.765000,1.017,-0.015,0.486,-15.17,6.9,-11.2
575271.812000,0.969,-0.083,0.481,-3.6,6.59,-12.15
575271.859000,0.948,-0.16,0.485,13.7,14.04,-1.62
575271.906000,0.848,-0.012,0.443,23.01,6.56,-24.11
575271.953000,0.849,0.064,0.369,27.19,1.28,-14.16
575272.000000,0.869,0.122,0.355,5.58,-1.56,-8.39
575272.062000,0.919,0.081,0.321,1.34,11.23,0.67
575272.109000,0.92,0.078,0.376,-0.7,-1.5,-1.71
575272.156000,0.937,0.02,0.364,-1.19,0.03,5.98
575272.203000,0.91,-0.001,0.373,-0.21,-0.76,2.38
575272.250000,0.892,0.008,0.37,7.05,-1.74,1.77
575272.296000,0.891,0.061,0.369,4.3,-6.16,0.31
575272.343000,0.907,0.077,0.371,5.19,-4.33,6.78
575272.390000,0.923,0.05,0.328,1.95,-2.69,6.1
575272.437000,0.953,0.028,0.327,2.47,0.21,7.02
575272.500000,0.938,0.028,0.328,-5.04,6.44,4.55
575272.546000,0.92,0.024,0.334,3.33,0.73,7.72
575272.593000,0.91,0.031,0.349,-2.35,-0.64,2.53
575272.640000,0.943,0.025,0.317,1.89,-8.91,3.88
575272.687000,0.963,0.0,0.313,-1.01,-0.31,2.35
575272.734000,0.949,0.024,0.31,-5.65,1.28,-6.1
575272.781000,0.923,0.031,0.325,-6.71,6.32,-0.4
575272.828000,0.955,0.04,0.319,-13.82,24.45,0.46
575272.875000,0.94,0.051,0.354,-8.58,19.9,1.92
575272.921000,0.866,-0.004,0.437,-15.02,10.59,12.73
575272.968000,0.815,-0.063,0.459,-15.53,-5.98,9.95
575273.015000,0.664,-0.13,0.595,-14.92,-9.16,14.25
575273.062000,0.617,-0.271,0.835,-6.13,-16.54,46.11
575273.109000,0.772,-0.314,0.705,22.8,-64.76,32.07
575273.156000,1.101,-0.2,0.578,32.11,-51.73,-6.01
575273.218000,1.139,0.051,0.57,59.6,-6.04,-6.26
575273.265000,0.959,0.218,0.695,45.35,2.72,-17.3
575273.312000,0.905,0.128,0.642,40.62,-23.01,35.71
575273.359000,0.87,0.059,0.546,7.48,-33.45,32.11
575273.406000,0.806,0.062,0.355,-51.06,-47.15,45.75
575273.453000,0.808,-0.184,0.057,-52.64,-123.42,41.87
575273.500000,0.914,-0.25,-0.26,-73.79,-140.6,10.07
575273.546000,0.607,0.157,-0.502,-71.08,-144.35,-51.73
575273.593000,0.672,0.283,-1.007,-38.79,-169.53,29.85
575273.640000,0.617,0.144,-1.078,-103.06,-128.48,53.47
575273.687000,0.479,-0.002,-0.815,-98.85,-100.44,105.53
575273.734000,0.846,-0.738,-0.772,-114.69,-89.97,97.29
575273.781000,0.999,-0.886,-0.838,13.34,15.87,11.96
575273.828000,0.694,-0.144,-0.488,16.21,38.54,-136.17
575273.875000,0.635,0.269,-0.527,14.71,14.86,-74.68
575273.921000,0.838,0.01,-0.449,17.12,-10.47,10.19
575273.968000,0.9,-0.025,-0.505,-6.9,1.53,-13.31
575274.015000,0.848,-0.06,-0.474,7.45,-12.36,-6.04
575274.062000,0.842,-0.012,-0.576,-6.96,-5.58,0.18
575274.109000,0.785,-0.08,-0.511,-4.76,-0.98,2.53
575274.171000,0.839,-0.06,-0.614,-14.89,-3.42,-6.56
575274.218000,0.846,-0.059,-0.523,-4.97,3.17,1.71
575274.265000,0.832,-0.112,-0.538,-0.34,-3.88,-7.14
575274.312000,0.821,-0.048,-0.581,-3.54,-8.55,-18.31
575274.359000,0.861,0.007,-0.594,21.91,-7.87,2.2
575274.406000,0.815,-0.028,-0.523,4.73,6.78,5.28
575274.453000,0.828,-0.08,-0.54,-3.23,2.56,2.69
575274.500000,0.812,-0.045,-0.487,-2.29,11.47,1.74
575274.546000,0.825,-0.078,-0.504,-0.18,-1.56,3.54
575274.593000,0.845,-0.089,-0.509,-4.58,0.43,1.43
575274.640000,0.813,-0.078,-0.473,0.12,1.56,1.28
575274.687000,0.812,-0.088,-0.561,-1.4,6.44,-10.28
575274.734000,0.84,-0.045,-0.571,6.32,9.16,-8.3
575274.796000,0.859,0.062,-0.6,8.94,41.26,-22.43
575274.843000,0.823,0.033,-0.444,37.66,23.65,9.19
575274.890000,0.873,-0.096,-0.706,76.94,51.09,34.21
575274.937000,0.757,-0.118,-0.75,100.77,54.38,18.92
575274.984000,0.765,-0.141,-0.558,72.27,87.37,-3.2
575275.031000,0.775,-0.055,-0.512,59.85,88.14,-22.49
575275.078000,0.89,-0.198,-0.34,23.19,65.34,-23.87
575275.125000,0.905,-0.203,-0.357,6.1,80.32,-51.36
575275.171000,0.866,-0.135,-0.027,16.24,62.04,-44.56
575275.218000,1.048,-0.057,-0.057,67.42,58.29,-9.49
575275.265000,1.012,0.098,-0.001,30.7,68.7,-40.22
575275.312000,0.967,0.141,0.166,30.46,76.48,-14.01
575275.359000,0.955,0.085,0.21,3.48,52.52,1.62
575275.406000,0.914,0.047,0.344,-22.83,50.45,-8.67
575275.453000,0.872,0.004,0.31,-12.36,26.18,25.51
575275.500000,0.909,-0.119,0.267,-13.64,19.04,27.16
575275.546000,0.907,-0.126,0.22,-35.31,20.17,-0.92
575275.593000,0.927,-0.031,0.277,-13.25,16.27,-1.04
575275.640000,0.932,-0.063,0.292,-18.83,14.31,2.56
575275.687000,0.892,0.041,0.19,-6.99,10.47,-33.57
575275.734000,0.831,-0.026,0.375,-10.28,20.63,-30.76
575275.781000,0.901,-0.011,0.432,-21.21,3.2,10.04
575275.828000,0.982,-0.301,0.501,-35.1,-16.14,9.58
575275.875000,1.05,-0.221,0.483,-17.03,-6.9,-3.51
575275.921000,1.006,-0.048,0.465,-11.17,4.27,-45.11
575275.968000,0.919,0.034,0.514,-8.03,15.96,-21.73
575276.015000,0.817,0.046,0.425,-14.71,32.44,-1.53
575276.062000,0.81,-0.05,0.41,1.95,43.86,20.72
575276.109000,0.841,-0.07,0.474,21.49,35.34,36.13
575276.156000,0.914,-0.103,0.436,7.84,6.56,9.92
575276.203000,0.999,-0.043,0.254,11.02,-15.14,-4.09
575276.250000,1.018,-0.055,0.254,-5.52,-7.63,-11.08
575276.296000,0.951,-0.027,0.302,0.34,2.62,-8.55
575276.343000,0.918,-0.022,0.329,-2.96,7.29,-2.38
575276.390000,0.92,-0.066,0.386,-10.71,8.61,-5.37
575276.437000,0.906,-0.049,0.391,5.83,5.13,-5.1
575276.484000,0.932,0.014,0.352,12.12,-1.22,-0.12
575276.531000,0.93,0.013,0.369,4.58,4.55,2.29
575276.578000,0.92,-0.013,0.329,4.76,1.28,4.12
575276.625000,0.906,-0.037,0.373,3.27,4.0,1.28
575276.671000,0.879,-0.021,0.383,-1.31,1.68,-2.44
575276.718000,0.903,-0.009,0.382,0.61,-2.2,1.07
575276.765000,0.905,-0.005,0.383,-2.69,-2.56,1.92
575276.812000,0.927,0.012,0.348,-1.62,-2.2,4.88
575276.859000,0.924,-0.027,0.374,-2.14,-1.98,8.97
575276.906000,0.9,-0.059,0.388,-1.28,-4.15,5.52
575276.953000,0.945,-0.033,0.316,-0.37,-8.03,1.01
575277.000000,0.934,-0.04,0.334,0.18,-3.3,4.12
575277.046000,0.933,-0.079,0.335,6.99,2.96,13.7
575277.093000,0.923,-0.098,0.344,10.38,3.33,18.25
575277.140000,0.881,-0.104,0.387,-2.62,3.72,2.69
575277.187000,0.819,-0.129,0.556,-0.89,3.17,6.04
575277.234000,0.769,-0.212,0.632,13.79,2.69,17.82
575277.296000,0.831,-0.295,0.792,51.52,-18.74,18.8
575277.343000,0.949,-0.225,0.672,84.2,-41.99,5.01
575277.390000,1.06,-0.096,0.531,116.21,-51.45,-5.01
575277.437000,1.149,-0.043,0.303,119.97,8.91,59.14
575277.484000,1.0,0.18,0.592,87.01,11.08,7.54
575277.531000,0.903,0.318,0.624,40.19,3.08,-11.44
575277.578000,0.747,0.385,0.776,-12.3,-38.33,-35.8
575277.625000,0.737,0.268,0.595,-42.76,-99.7,2.93
575277.671000,0.679,0.145,0.292,-96.74,-139.99,15.38
575277.718000,0.645,-0.068,-0.228,-109.65,-171.03,75.38
575277.765000,0.66,0.004,-0.689,-138.34,-166.84,-17.3
575277.812000,0.375,0.046,-0.548,-141.7,-153.66,-17.94
575277.859000,0.353,0.337,-1.147,-121.04,-206.85,-6.13
575277.906000,0.563,0.474,-1.499,-201.57,-180.39,-27.92
575277.953000,0.855,-0.136,-1.037,-62.87,-83.59,163.91
575278.000000,0.961,-0.781,-0.884,57.5,12.3,114.78
575278.046000,0.732,0.107,-0.561,-7.35,49.2,-134.19
575278.093000,0.712,0.489,-0.382,40.22,28.93,-26.89
575278.140000,0.793,0.195,-0.647,16.24,-37.72,43.95
575278.187000,0.888,-0.056,-0.589,-9.77,-2.32,26.76
575278.234000,0.861,-0.061,-0.623,2.35,-13.12,0.89
575278.281000,0.808,-0.048,-0.615,-6.93,9.64,-6.68
575278.328000,0.713,0.016,-0.481,3.66,8.45,-4.7
575278.375000,0.745,0.066,-0.563,-13.7,-1.5,-1.43
575278.421000,0.761,-0.007,-0.514,1.77,-7.75,20.29
575278.468000,0.834,-0.056,-0.622,-5.13,-14.89,10.9
575278.515000,0.827,-0.108,-0.574,-3.23,-0.7,-1.89
575278.562000,0.829,-0.004,-0.609,-3.88,3.33,-14.01
575278.609000,0.787,0.062,-0.541,3.54,6.07,-0.92
575278.656000,0.818,0.003,-0.614,-6.68,-1.34,2.26
575278.703000,0.814,0.011,-0.555,-15.47,-1.34,8.15
575278.750000,0.788,0.039,-0.555,-15.17,-1.74,5.92
575278.796000,0.851,-0.225,-0.601,-8.15,-0.82,22.52
575278.843000,0.801,-0.054,-0.558,-6.16,17.49,-26.55
575278.890000,0.73,0.173,-0.47,-2.01,5.1,-17.03
575278.937000,0.874,-0.061,-0.652,19.17,-2.23,30.06
575278.984000,0.801,0.079,-0.537,-7.69,10.8,-22.58
575279.031000,0.851,-0.004,-0.609,19.93,2.84,16.79
575279.078000,0.877,-0.018,-0.691,28.17,24.48,-3.2
575279.125000,0.824,-0.063,-0.567,24.75,38.64,-12.18
575279.171000,0.83,0.01,-0.597,40.77,37.35,-9.92
575279.218000,0.832,-0.046,-0.575,48.49,42.88,-1.1
575279.265000,0.802,-0.082,-0.608,46.17,42.36,-3.17
575279.312000,0.75,-0.097,-0.7,70.93,44.43,-8.0
575279.359000,0.709,-0.104,-0.739,72.42,50.72,-22.58
575279.406000,0.739,-0.022,-0.738,79.99,61.22,-41.81
575279.453000,0.732,-0.022,-0.661,99.58,55.42,-38.7
575279.500000,0.807,-0.007,-0.535,89.39,48.43,-58.35
575279.546000,0.854,0.1,-0.392,105.17,71.41,-86.06
575279.593000,1.0,0.124,-0.304,89.57,99.73,-73.37
575279.640000,0.922,0.126,-0.018,40.83,110.48,-70.77
575279.687000,0.899,0.179,0.135,-4.43,112.49,-35.62
575279.750000,0.776,0.357,0.538,-44.62,65.19,-75.44
575279.796000,0.725,0.544,0.563,-65.98,16.08,-35.89
575279.843000,0.733,0.526,0.606,-80.29,11.9,36.99
575279.890000,0.789,0.178,0.61,-74.1,37.63,107.52
575279.937000,0.831,-0.215,0.707,-68.03,24.45,80.2
575279.984000,0.957,-0.264,0.684,-26.67,-2.23,40.99
575280.031000,1.066,-0.224,0.455,0.0,-8.45,30.18
575280.078000,1.076,-0.14,0.44,7.05,5.49,0.76
575280.125000,1.057,-0.014,0.278,3.51,-0.24,-24.05
575280.171000,1.018,0.013,0.287,-1.4,8.42,-29.36
575280.218000,0.91,0.135,0.298,6.84,15.75,-15.17
575280.265000,0.798,0.12,0.359,-1.56,9.31,-3.81
575280.312000,0.918,0.011,0.325,-2.87,-4.67,9.49
575280.359000,0.97,-0.047,0.338,-5.22,-6.47,-1.68
575280.406000,0.951,0.01,0.314,-9.61,-1.56,-13.43
575280.453000,0.917,0.019,0.356,-10.68,2.35,-9.95
575280.500000,0.918,0.036,0.314,-3.27,5.34,-3.17
575280.546000,0.916,0.02,0.364,-9.34,3.54,-5.77
575280.593000,0.921,0.041,0.282,1.62,-2.5,-5.74
575280.640000,0.935,0.047,0.285,-5.77,-4.15,-10.5
575280.687000,0.931,0.065,0.344,-8.45,1.19,1.16
575280.734000,0.965,0.017,0.258,-0.49,-3.91,7.23
575280.781000,0.928,0.019,0.302,-17.27,2.56,-10.13
575280.828000,0.927,0.031,0.287,-8.12,1.22,-1.89
575280.875000,0.924,0.028,0.346,-20.97,-2.29,0.67
575280.921000,0.931,0.032,0.29,-12.48,-3.39,-2.9
575280.968000,0.944,0.045,0.272,3.54,-10.22,2.5
575281.015000,0.95,-0.003,0.296,4.06,0.49,4.7
575281.062000,0.968,0.01,0.247,0.31,0.4,-0.52
575281.109000,0.946,0.029,0.314,-0.61,6.16,-2.32
575281.156000,0.926,0.062,0.319,2.14,3.48,1.74
575281.203000,0.947,0.02,0.297,-2.04,1.62,-0.4
575281.250000,0.954,0.021,0.281,-4.39,5.65,-1.65
575281.296000,0.916,0.015,0.335,-7.23,8.24,-2.01
575281.343000,0.884,0.028,0.392,-9.16,12.63,-1.59
575281.390000,0.83,0.01,0.559,-12.39,13.28,5.04
575281.437000,0.772,-0.105,0.643,18.95,-12.09,27.8
575281.484000,0.814,-0.216,0.811,65.1,-10.04,52.43
575281.531000,0.805,-0.146,0.815,101.32,-27.77,57.16
575281.578000,1.081,-0.054,0.588,79.93,-30.46,32.23
575281.625000,1.145,-0.029,0.488,98.39,-4.91,31.22
575281.671000,1.015,0.158,0.69,31.31,30.15,-19.35
575281.718000,0.953,0.298,0.704,29.36,0.49,-19.56
575281.765000,0.76,0.129,0.662,-9.92,-49.93,16.94
575281.812000,0.765,-0.071,0.227,-35.19,-101.75,78.19
575281.859000,0.847,-0.291,0.054,-115.63,-100.5,-17.0
575281.906000,0.593,0.01,-0.144,-142.67,-120.85,-79.9
575281.953000,0.525,0.421,-0.606,-131.02,-178.41,-39.7
575282.000000,0.408,0.492,-0.931,-158.3,-210.49,-24.2
575282.046000,0.458,0.271,-1.334,-196.66,-177.34,4.85
575282.093000,1.15,-0.249,-1.107,-102.27,-120.15,49.53
575282.140000,1.002,-0.233,-0.589,93.02,30.79,69.8
575282.187000,0.722,0.261,-0.432,3.72,19.56,-86.79
575282.234000,0.863,0.431,-0.379,7.87,6.41,0.58
575282.281000,0.904,0.18,-0.679,35.28,-28.17,54.38
575282.328000,0.932,0.006,-0.575,-8.42,-3.2,14.95
575282.375000,0.881,0.088,-0.528,10.96,3.27,11.81
575282.421000,0.79,0.125,-0.422,0.43,9.37,2.87
575282.468000,0.85,0.07,-0.548,-0.15,-6.32,6.29
575282.515000,0.862,0.042,-0.505,-0.7,-0.67,10.86
575282.562000,0.829,0.01,-0.489,0.7,1.83,4.79
575282.609000,0.848,0.074,-0.494,-3.97,-0.85,-2.32
575282.656000,0.813,0.026,-0.443,4.03,0.24,12.36
575282.703000,0.841,0.006,-0.516,-3.81,0.4,-1.04
575282.750000,0.857,-0.002,-0.465,-3.14,-4.21,1.01
575282.796000,0.867,0.03,-0.52,0.85,0.82,0.95
575282.843000,0.864,0.02,-0.505,-0.85,0.92,0.58
575282.890000,0.866,0.025,-0.487,-1.62,3.23,4.76
575282.937000,0.871,0.03,-0.49,-1.86,2.38,-0.52
575282.984000,0.833,0.001,-0.485,-5.19,3.69,0.0
575283.031000,0.849,0.01,-0.487,-2.75,1.62,-0.7
575283.078000,0.82,0.019,-0.458,-1.31,5.62,-1.95
575283.125000,0.825,0.041,-0.522,-1.31,1.37,-5.86
575283.171000,0.796,0.063,-0.469,7.02,11.08,9.13
575283.218000,0.778,0.039,-0.522,19.04,3.08,24.32
575283.265000,0.857,-0.016,-0.669,60.09,4.67,38.45
575283.312000,0.854,-0.053,-0.776,74.4,41.51,-10.28
575283.359000,0.77,0.062,-0.899,81.09,50.94,-27.71
575283.406000,0.881,0.004,-0.869,86.12,70.04,4.52
575283.468000,0.818,-0.114,-0.761,95.43,76.11,17.37
575283.515000,0.866,-0.175,-0.488,84.69,87.89,-52.19
575283.562000,0.879,-0.058,-0.15,48.8,100.59,-58.9
575283.609000,0.869,-0.061,0.032,27.19,90.79,-60.46
575283.656000,0.894,0.004,0.159,-11.51,73.43,-51.67
575283.718000,0.797,0.07,0.368,-44.25,53.25,-42.42
575283.765000,0.829,0.013,0.392,-39.16,37.23,-10.38
575283.812000,0.87,-0.046,0.386,-33.97,23.29,-12.63
575283.859000,0.91,0.107,0.291,-1.68,21.45,-15.08
575283.906000,0.882,0.18,0.342,-6.1,40.44,-17.06
575283.953000,0.804,0.199,0.427,-49.41,28.69,-5.13
575284.000000,0.898,-0.025,0.672,-64.21,27.44,56.18
575284.046000,1.015,-0.251,0.709,-26.0,4.67,40.5
575284.093000,1.06,-0.265,0.627,-10.28,0.06,-0.52
575284.140000,1.011,-0.166,0.372,29.76,-4.91,-22.68
575284.187000,0.968,-0.037,0.26,27.19,5.95,-30.67
575284.234000,0.899,0.117,0.244,22.49,8.76,-30.67
575284.281000,0.913,0.159,0.228,6.62,4.76,-10.04
575284.328000,0.951,0.12,0.205,12.3,16.42,5.22
575284.375000,0.938,0.05,0.311,-2.35,5.1,3.72
575284.421000,0.95,0.016,0.304,15.96,4.33,10.93
575284.468000,0.958,-0.026,0.292,0.37,-0.27,-3.23
575284.515000,0.935,0.065,0.291,2.17,4.97,-10.04
575284.562000,0.925,0.089,0.3,2.26,4.88,-4.49
575284.609000,0.892,0.095,0.307,-0.46,0.27,-5.46
575284.656000,0.937,0.062,0.287,-1.89,-3.66,-0.49
575284.703000,0.98,0.065,0.268,-10.5,1.83,-4.24
575284.750000,0.963,0.055,0.31,0.09,6.84,3.23
575284.812000,0.94,0.044,0.305,-2.84,9.25,-0.98
575284.859000,0.906,0.074,0.346,-5.16,3.66,-9.19
575284.906000,0.923,0.066,0.312,3.69,-3.36,4.18
575284.953000,0.942,0.056,0.276,7.02,-0.03,3.05
575285.000000,0.917,0.096,0.317,-0.82,3.23,-5.07
575285.046000,0.919,0.061,0.31,4.64,2.96,10.01
575285.093000,0.927,0.048,0.295,0.18,-0.73,-1.86
575285.140000,0.922,0.074,0.279,-2.23,0.09,-2.11
575285.187000,0.918,0.07,0.303,-4.79,-2.44,0.37
575285.234000,0.938,0.076,0.286,-1.01,-1.77,5.4
575285.281000,0.928,0.074,0.321,-1.07,-0.89,9.03
575285.328000,0.937,0.036,0.33,0.21,0.43,12.51
575285.375000,0.971,-0.001,0.305,2.2,-1.59,10.93
575285.421000,0.955,0.009,0.319,-0.18,-0.24,-1.5
575285.468000,0.939,0.03,0.339,1.31,-0.49,-0.06
575285.515000,0.937,0.008,0.299,3.88,1.37,3.05
575285.562000,0.914,-0.008,0.369,3.45,6.07,1.62
575285.609000,0.858,0.002,0.451,11.29,12.3,6.9
575285.656000,0.752,-0.018,0.63,16.02,21.0,18.65
575285.703000,0.802,-0.061,0.642,12.7,-2.2,-1.34
575285.750000,0.797,-0.09,0.733,11.08,4.61,4.58
575285.796000,0.973,-0.157,0.694,62.81,-8.45,52.98
575285.843000,1.04,0.052,0.586,36.53,-6.5,3.33
575285.890000,0.919,0.203,0.713,24.45,18.19,-25.7
575285.937000,0.864,0.22,0.763,14.68,33.45,8.06
575285.984000,0.815,0.231,0.625,-2.32,-56.49,1.71
575286.031000,0.779,0.158,0.374,-18.62,-95.86,34.03
575286.078000,0.892,-0.017,0.069,-54.87,-135.14,40.04
575286.125000,0.831,-0.014,-0.139,-102.82,-121.52,-26.8
575286.187000,0.863,-0.01,-0.569,-94.39,-134.5,-13.82
575286.234000,0.569,0.256,-0.578,-104.5,-137.55,-51.3
575286.281000,0.404,0.444,-0.977,-162.11,-198.31,-10.28
575286.328000,0.852,0.053,-1.262,-157.29,-182.65,78.68
575286.375000,1.159,-1.12,-0.886,42.42,-36.26,240.7
575286.421000,1.038,-0.3,-0.845,59.57,12.05,-59.94
575286.468000,0.689,0.485,-0.372,24.38,69.46,-120.7
575286.515000,0.877,0.387,-0.49,40.77,1.98,22.03
575286.562000,0.826,0.176,-0.337,-16.14,20.57,7.45
575286.609000,0.954,0.066,-0.507,-6.53,-23.71,19.38
575286.656000,0.835,0.059,-0.396,-0.7,16.33,5.68
575286.703000,0.796,0.043,-0.511,-7.32,-7.72,3.69
575286.750000,0.821,-0.053,-0.387,-11.87,2.66,4.61
575286.796000,0.866,-0.009,-0.505,3.97,-6.59,6.47
575286.843000,0.848,-0.009,-0.491,-2.08,2.99,-4.73
575286.890000,0.878,0.058,-0.486,0.64,-5.86,-9.77
575286.937000,0.855,0.091,-0.468,4.39,1.68,1.28
575286.984000,0.904,0.025,-0.501,-1.19,-9.34,1.95
575287.031000,0.862,0.068,-0.464,-2.59,-1.8,-3.97
575287.078000,0.87,0.044,-0.491,-5.8,-3.08,-1.28
575287.125000,0.864,0.051,-0.452,-4.46,-0.79,4.94
575287.171000,0.827,0.071,-0.455,-3.2,-3.27,5.16
575287.218000,0.845,-0.001,-0.492,-7.81,-8.27,7.66
575287.265000,0.869,-0.052,-0.479,3.91,-1.53,10.04
575287.312000,0.895,-0.076,-0.575,11.11,2.59,2.96
575287.359000,0.897,0.031,-0.56,25.57,13.61,-2.17
575287.406000,0.858,0.17,-0.539,27.1,14.95,2.9
575287.453000,0.901,0.09,-0.589,46.69,16.72,30.52
575287.500000,0.891,-0.07,-0.673,51.67,28.75,18.62
575287.546000,0.862,-0.133,-0.768,78.43,52.28,5.16
575287.593000,0.742,-0.077,-0.867,87.44,67.63,-23.5
575287.640000,0.687,-0.086,-0.692,88.14,77.27,-33.2
575287.687000,0.697,-0.042,-0.635,90.85,69.22,-32.41
575287.734000,0.783,-0.107,-0.5,98.27,66.77,-42.97
575287.781000,0.777,0.04,-0.407,88.96,69.89,-45.56
575287.828000,0.829,-0.022,-0.098,72.79,81.7,-46.39
575287.875000,0.769,0.233,0.011,15.72,58.96,-82.34
575287.921000,0.811,0.206,0.409,-54.75,62.29,-20.78
575287.968000,0.935,0.092,0.376,-48.4,11.57,18.83
575288.015000,0.962,-0.02,0.36,-55.54,9.52,-2.17
575288.062000,0.932,-0.044,0.381,-34.97,13.76,-11.84
575288.109000,0.889,-0.082,0.552,-3.94,16.57,-34.33
575288.156000,0.972,0.122,0.479,9.16,-15.75,4.09
575288.203000,1.077,0.021,0.252,-41.17,-1.8,37.45
575288.250000,1.181,-0.016,0.177,-51.15,12.3,28.17
575288.296000,1.205,-0.081,0.476,-50.14,12.12,-1.8
575288.343000,1.04,-0.118,0.296,-34.58,22.98,-19.38
575288.390000,0.939,-0.057,0.34,-2.56,21.91,-28.6
575288.437000,0.846,0.013,0.206,0.82,25.12,-19.5
575288.484000,0.857,0.078,0.262,-2.23,19.35,-13.21
575288.531000,0.906,0.064,0.132,9.77,8.94,-1.56
575288.578000,0.953,0.06,0.225,-2.11,18.31,-1.62
575288.625000,1.003,0.023,0.183,5.43,-4.03,12.18
575288.671000,1.015,0.009,0.183,-5.4,6.65,1.43
575288.718000,1.011,0.046,0.185,-0.7,7.6,-3.91
575288.765000,0.955,0.05,0.206,-8.42,11.23,-0.4
575288.812000,0.967,0.016,0.216,1.98,8.24,2.29
575288.859000,0.98,0.015,0.22,-10.68,11.08,-5.01
575288.906000,0.921,0.024,0.271,-8.09,11.84,-3.72
575288.953000,0.933,0.017,0.251,-5.34,7.14,0.18
575289.000000,0.946,0.043,0.223,-5.4,6.65,-5.77
575289.046000,0.95,0.036,0.268,-0.34,4.24,5.34
575289.093000,0.967,0.026,0.245,1.59,1.37,6.23
575289.140000,0.965,0.03,0.259,-5.83,1.74,-3.54
575289.187000,0.958,0.039,0.249,1.16,0.92,1.92
575289.234000,0.944,0.008,0.267,-1.74,2.78,0.49
575289.281000,0.923,0.017,0.273,-0.67,1.86,-2.81
575289.328000,0.945,0.03,0.25,-0.67,-3.17,1.34
575289.375000,0.961,0.018,0.249,-0.31,2.75,1.13
575289.421000,0.948,0.026,0.297,-1.53,2.35,0.82
575289.468000,0.937,0.02,0.299,0.89,0.49,0.58
575289.515000,0.942,0.044,0.293,-0.21,-2.93,-1.43
575289.562000,0.97,0.013,0.242,3.94,-0.95,4.82
575289.609000,0.955,0.025,0.265,-0.31,2.75,-1.28
575289.656000,0.946,0.013,0.265,2.17,0.98,1.1
575289.703000,0.943,0.029,0.294,-0.92,2.53,-1.65
575289.750000,0.95,0.009,0.268,0.09,0.0,0.18
575289.796000,0.938,0.035,0.282,-1.71,2.62,-2.17
575289.843000,0.901,0.026,0.326,3.08,1.28,8.3
575289.890000,0.876,-0.023,0.373,4.15,0.82,9.61
575289.937000,0.884,-0.042,0.499,9.92,-0.98,6.87
575289.984000,0.946,-0.085,0.574,3.91,0.73,-6.35
575290.031000,0.984,-0.089,0.612,22.71,7.45,-7.08
575290.078000,1.017,-0.076,0.711,43.24,30.85,8.06
575290.125000,0.962,0.064,0.647,84.9,34.64,0.03
575290.171000,0.791,0.34,0.747,96.71,43.73,-5.98
575290.218000,0.734,0.259,0.817,38.88,-24.51,34.46
575290.265000,0.767,0.083,0.722,5.65,-45.78,58.11
575290.312000,0.827,-0.019,0.442,9.89,-81.0,72.66
575290.359000,0.845,-0.103,0.163,-53.53,-102.85,60.85
575290.406000,0.738,-0.028,-0.108,-56.4,-122.81,25.57
575290.453000,0.502,0.13,-0.485,-120.46,-166.48,-9.64
575290.500000,0.3,0.313,-0.784,-137.88,-219.46,-19.93
575290.546000,0.35,0.36,-1.467,-197.58,-220.71,-16.97
575290.593000,0.77,0.235,-1.342,-160.22,-160.59,8.91
575290.640000,1.334,-0.799,-1.159,-15.69,-50.39,194.77
575290.687000,0.889,-0.429,-0.653,-4.15,38.09,-71.99
575290.734000,0.798,0.47,-0.529,4.58,30.92,-93.23
575290.781000,0.797,0.252,-0.546,41.2,-0.95,45.53
575290.828000,0.902,-0.019,-0.557,-9.34,-0.43,29.63
575290.875000,0.842,-0.053,-0.442,14.01,7.02,11.72
575290.921000,0.792,0.043,-0.51,-9.06,8.36,-23.99
575290.968000,0.787,0.054,-0.432,-4.15,3.94,-3.51
575291.015000,0.786,0.016,-0.448,5.92,-0.73,11.99
575291.062000,0.795,-0.029,-0.506,-5.55,0.34,1.68
575291.109000,0.837,-0.046,-0.436,-3.51,-4.85,0.89
575291.156000,0.852,0.0,-0.472,0.27,4.55,-4.94
575291.218000,0.877,-0.009,-0.523,-1.59,-1.53,-0.64
575291.265000,0.87,-0.031,-0.521,0.24,-1.37,2.26
575291.312000,0.861,-0.056,-0.469,2.08,-0.4,3.57
575291.359000,0.847,-0.037,-0.492,-0.06,3.27,-8.0
575291.406000,0.847,0.025,-0.5,-2.26,-1.71,0.34
575291.453000,0.856,-0.006,-0.486,3.63,0.0,5.83
575291.500000,0.857,-0.02,-0.498,0.58,3.23,-0.03
575291.546000,0.857,-0.03,-0.503,-3.57,2.17,-3.54
575291.593000,0.832,0.03,-0.474,-0.12,4.36,-1.71
575291.640000,0.841,-0.02,-0.49,-0.95,1.46,4.76
575291.687000,0.859,-0.011,-0.492,-0.46,-2.23,0.24
575291.734000,0.815,0.015,-0.453,0.0,1.86,-5.19
575291.781000,0.841,0.013,-0.519,-1.95,-1.74,-2.01
575291.828000,0.848,0.014,-0.482,0.31,-1.37,1.16
575291.875000,0.847,-0.011,-0.516,3.66,0.43,-2.2
575291.921000,0.867,0.018,-0.561,13.64,5.25,-1.46
575291.968000,0.9,0.034,-0.599,35.52,9.37,8.36
575292.015000,0.897,-0.015,-0.7,51.7,29.42,7.26
575292.062000,0.826,-0.004,-0.78,66.68,52.06,-16.3
575292.109000,0.766,0.054,-0.802,68.09,68.27,-25.88
575292.156000,0.725,0.09,-0.812,66.32,73.85,-16.51
575292.203000,0.736,-0.096,-0.689,73.55,72.45,12.3
575292.250000,0.793,-0.061,-0.716,81.36,65.77,-33.85
575292.296000,0.859,-0.066,-0.39,77.91,81.67,-35.65
575292.343000,0.848,-0.13,-0.189,67.45,89.57,-37.9
575292.390000,0.85,-0.124,0.055,51.21,81.76,-60.24
575292.437000,0.826,0.027,0.155,28.29,71.14,-75.29
575292.484000,0.855,0.191,0.235,-39.98,69.31,-48.49
575292.531000,0.842,0.129,0.43,-67.42,17.24,21.49
575292.578000,0.891,0.101,0.421,-48.34,35.31,8.27
575292.625000,0.763,0.296,0.749,-84.69,20.97,-62.44
575292.671000,0.81,0.319,0.898,-85.42,-25.39,-7.08
575292.718000,1.126,-0.223,0.73,-46.17,-14.98,81.42
575292.765000,1.2,-0.348,0.44,-10.19,-0.4,15.99
575292.812000,1.095,-0.057,0.263,-2.93,4.79,-28.44
575292.859000,0.961,0.068,0.193,11.47,22.22,-5.8
575292.906000,0.894,0.056,0.232,1.4,23.87,0.43
575292.953000,0.882,0.035,0.195,-1.53,6.23,5.25
575293.000000,0.927,0.003,0.18,1.65,-1.37,1.43
575293.046000,0.984,0.026,0.202,-14.01,5.71,-6.1
575293.093000,0.963,0.016,0.231,-2.93,3.23,5.65
575293.140000,0.952,-0.05,0.245,-0.7,7.87,13.52
575293.187000,0.949,-0.056,0.251,4.36,3.08,3.78
575293.234000,0.965,-0.007,0.218,8.42,0.76,3.36
575293.281000,0.974,-0.002,0.219,4.85,2.9,1.77
575293.328000,0.972,-0.009,0.18,8.24,2.72,2.08
575293.375000,0.951,-0.005,0.208,2.2,1.89,-0.09
575293.421000,0.972,-0.007,0.194,4.0,1.74,0.52
575293.468000,0.957,0.011,0.192,1.22,4.58,-1.37
575293.515000,0.958,-0.01,0.213,-1.43,0.82,2.26
575293.562000,0.956,0.002,0.235,-2.26,3.27,1.25
575293.609000,0.964,-0.002,0.23,-4.76,3.3,0.64
575293.656000,0.957,-0.015,0.246,-5.43,1.95,-0.85
575293.703000,0.954,-0.004,0.26,-0.92,1.04,1.86
575293.750000,0.954,0.006,0.262,-4.0,1.59,-2.62
575293.796000,0.966,-0.025,0.239,-1.22,0.34,1.89
575293.843000,0.954,-0.026,0.233,-0.7,5.01,0.4
575293.890000,0.947,-0.015,0.253,-2.35,3.2,-3.33
575293.937000,0.961,-0.002,0.241,-2.47,1.95,-1.53
575293.984000,0.956,0.005,0.258,-4.64,2.84,-5.04
575294.031000,0.947,0.004,0.271,-2.5,4.09,-1.68
575294.078000,0.956,-0.04,0.251,-3.97,1.59,-1.46
575294.125000,0.942,-0.008,0.268,-4.49,1.5,-5.77
575294.171000,0.938,0.017,0.266,0.03,-0.43,0.09
575294.218000,0.949,-0.002,0.253,-2.87,1.37,0.09
575294.265000,0.951,0.001,0.264,-0.34,-0.79,1.98
575294.312000,0.952,-0.005,0.264,-0.82,1.83,2.2
575294.359000,0.966,-0.027,0.254,-0.31,-0.7,2.62
575294.406000,0.964,-0.013,0.262,1.04,1.92,-1.53
575294.453000,0.955,0.01,0.24,-2.38,1.74,-2.75
575294.500000,0.927,-0.004,0.29,-2.62,3.81,0.89
575294.546000,0.919,-0.046,0.303,-1.34,0.43,2.01
575294.593000,0.905,-0.043,0.366,0.46,0.12,3.02
575294.656000,0.808,-0.128,0.656,28.32,6.56,36.41
575294.703000,0.943,-0.251,0.652,53.93,-17.52,29.97
575294.750000,1.095,-0.207,0.555,72.66,-19.17,5.98
575294.812000,1.081,-0.09,0.427,91.77,4.12,-1.56
575294.859000,0.924,0.192,0.555,78.59,25.61,-25.85
575294.906000,0.892,0.287,0.495,39.12,-1.46,-16.42
575294.968000,0.857,0.135,0.422,22.46,-17.98,30.27
575295.015000,0.812,0.005,0.375,-14.22,-45.53,48.22
575295.062000,0.836,-0.069,0.255,-19.1,-73.79,54.99
575295.125000,0.919,-0.206,-0.043,-52.49,-108.65,26.86
575295.171000,0.935,-0.08,-0.269,-77.09,-121.86,-14.37
575295.218000,0.809,0.135,-0.5,-132.48,-79.07,-59.57
575295.265000,0.532,0.354,-0.511,-109.84,-121.62,-31.77
575295.312000,0.655,0.21,-0.909,-105.08,-159.7,64.15
575295.359000,0.528,0.049,-0.903,-109.96,-120.88,59.08
575295.406000,0.954,-0.512,-0.926,-68.21,-88.87,126.04
575295.453000,1.095,-0.783,-0.701,57.37,6.74,75.23
575295.500000,0.703,0.077,-0.454,13.12,38.42,-120.46
575295.546000,0.689,0.278,-0.314,9.61,-7.54,-31.4
575295.593000,0.876,0.11,-0.516,16.79,-23.62,28.02
575295.640000,0.894,-0.086,-0.514,-9.89,-8.85,-0.7
575295.687000,0.852,0.008,-0.518,-6.29,4.33,-17.58
575295.734000,0.821,-0.011,-0.519,-24.35,1.25,-16.97
575295.781000,0.834,-0.024,-0.454,-12.39,1.92,-8.76
575295.828000,0.894,-0.094,-0.626,-4.7,-1.83,-12.67
575295.875000,0.868,0.004,-0.436,-1.28,3.14,-35.19
575295.921000,0.842,0.067,-0.494,1.98,-1.46,-38.09
575295.968000,0.87,0.08,-0.456,0.98,12.21,-5.58
575296.015000,0.823,0.146,-0.439,-6.41,13.15,-4.12
575296.062000,0.839,0.062,-0.466,-8.18,-2.29,13.58
575296.109000,0.86,0.021,-0.484,-12.05,-1.25,10.44
575296.156000,0.844,0.021,-0.465,-2.47,2.87,6.35
575296.203000,0.854,0.008,-0.497,-4.82,-1.92,-2.62
575296.250000,0.855,0.049,-0.509,0.31,-0.52,2.99
575296.296000,0.884,0.062,-0.554,14.34,5.52,6.26
575296.343000,0.925,0.031,-0.596,31.19,9.89,10.32
575296.390000,0.918,0.06,-0.698,54.6,40.28,5.31
575296.437000,0.79,-0.067,-0.731,68.45,50.72,-9.7
575296.484000,0.73,-0.051,-0.752,80.23,77.85,-23.1
575296.531000,0.658,0.023,-0.838,75.11,68.27,-43.46
575296.578000,0.668,-0.04,-0.522,97.81,80.51,-19.47
