t_monotonic,ax,ay,az,gx,gy,gz
233220.544548,0.164,1.019,0.123,-1.71,16.48,-13.18
233220.554868,0.161,1.027,0.13,-4.09,16.11,-11.66
233220.568357,0.152,1.04,0.129,-6.32,15.93,-9.95
233220.574159,0.141,1.053,0.132,-8.76,15.93,-8.0
233220.584402,0.133,1.064,0.132,-10.62,15.47,-5.86
233220.594515,0.119,1.072,0.131,-11.81,15.08,-3.63
233220.604983,0.11,1.076,0.134,-12.7,14.74,-1.43
233220.618382,0.102,1.078,0.137,-13.12,14.22,0.76
233220.624004,0.097,1.073,0.138,-12.82,13.61,2.9
233220.634093,0.096,1.064,0.138,-11.26,13.12,4.52
233220.644401,0.098,1.056,0.139,-8.42,12.57,5.92
233220.654836,0.1,1.038,0.134,-4.49,12.02,7.05
233220.669503,0.104,1.012,0.122,-0.46,11.57,7.69
233220.675865,0.106,0.985,0.106,1.86,11.35,7.75
233220.684772,0.105,0.963,0.094,2.04,11.35,7.54
233220.694569,0.106,0.943,0.083,1.13,11.44,7.39
233220.705703,0.107,0.929,0.072,-0.27,11.84,7.2
233220.715698,0.109,0.916,0.065,-2.17,12.42,7.11
233220.729313,0.112,0.913,0.065,-4.09,13.03,7.26
233220.735301,0.115,0.914,0.065,-5.25,13.61,7.29
233220.744311,0.114,0.926,0.063,-5.86,14.1,7.51
233220.754802,0.109,0.936,0.063,-6.59,14.56,7.81
233220.765355,0.106,0.949,0.063,-6.87,14.65,7.57
233220.775272,0.102,0.962,0.063,-6.47,14.53,7.14
233220.789413,0.096,0.972,0.06,-5.92,14.56,6.93
233220.794800,0.089,0.979,0.061,-5.58,14.4,6.62
233220.804200,0.082,0.986,0.062,-5.31,14.13,6.41
233220.815364,0.072,0.989,0.06,-5.16,13.92,6.44
233220.825093,0.065,0.991,0.063,-5.25,13.73,6.5
233220.835606,0.062,0.991,0.07,-5.49,13.64,6.56
233220.849261,0.063,0.985,0.075,-5.98,13.31,6.74
233220.855348,0.063,0.978,0.082,-6.53,12.88,6.87
233220.864512,0.068,0.972,0.088,-7.02,12.45,6.93
233220.875467,0.069,0.97,0.094,-7.05,11.96,6.9
233220.885440,0.071,0.967,0.103,-6.5,11.41,6.84
233220.899023,0.073,0.964,0.109,-5.52,10.77,6.78
233220.905090,0.074,0.96,0.115,-4.55,10.16,6.62
233220.914600,0.076,0.961,0.119,-3.39,9.4,6.44
233220.926120,0.073,0.968,0.12,-2.01,8.48,6.38
233220.934846,0.075,0.975,0.122,-0.89,7.57,6.35
233220.944858,0.076,0.98,0.122,0.37,6.71,5.83
233220.955662,0.075,0.984,0.118,1.25,6.1,4.82
233220.965706,0.074,0.99,0.117,1.65,5.55,3.66
233220.979144,0.072,0.991,0.126,1.92,5.04,2.01
233220.984750,0.069,0.989,0.128,2.2,4.85,0.24
233220.994258,0.066,0.992,0.127,2.47,4.91,-1.37
233221.004404,0.065,0.989,0.133,2.41,5.22,-2.38
233221.015450,0.065,0.979,0.14,2.69,5.71,-2.9
233221.024889,0.065,0.97,0.144,2.96,6.2,-2.99
233221.035458,0.073,0.958,0.148,2.99,6.74,-2.66
233221.048793,0.084,0.946,0.148,2.93,7.45,-2.14
233221.054701,0.095,0.937,0.148,2.56,8.0,-1.83
233221.063776,0.102,0.925,0.149,1.95,8.42,-1.62
233221.074074,0.111,0.918,0.152,0.82,8.82,-1.71
233221.085029,0.113,0.92,0.151,-0.73,9.16,-1.98
233221.094753,0.114,0.93,0.157,-2.81,9.34,-2.23
233221.105169,0.113,0.943,0.161,-4.33,9.31,-2.44
233221.115317,0.113,0.956,0.166,-5.1,8.88,-2.53
233221.128548,0.11,0.968,0.17,-5.34,8.3,-2.62
233221.134983,0.109,0.975,0.175,-5.31,7.32,-2.56
233221.144157,0.106,0.981,0.177,-5.04,6.44,-2.59
233221.154634,0.106,0.985,0.174,-4.3,5.34,-2.62
233221.164636,0.106,0.987,0.168,-3.78,4.3,-2.72
233221.174909,0.104,0.985,0.166,-3.17,3.17,-2.62
233221.185163,0.104,0.982,0.158,-2.93,2.2,-2.87
233221.198582,0.107,0.982,0.151,-3.02,1.65,-3.33
233221.204552,0.109,0.983,0.145,-3.36,1.13,-3.66
233221.213904,0.108,0.985,0.143,-3.88,0.92,-3.75
233221.224271,0.107,0.99,0.144,-4.73,0.89,-3.63
233221.234597,0.108,0.995,0.143,-5.71,0.89,-3.27
233221.244872,0.104,1.001,0.144,-6.35,1.1,-2.62
233221.255403,0.101,1.006,0.144,-6.74,1.19,-1.74
233221.265564,0.101,1.008,0.145,-6.74,1.22,-0.73
233221.278951,0.102,1.007,0.144,-6.5,1.04,0.49
233221.285174,0.102,1.003,0.142,-6.29,0.79,1.68
233221.294867,0.102,0.999,0.144,-5.95,0.34,2.75
233221.304568,0.104,0.991,0.147,-5.65,-0.58,3.6
233221.315207,0.107,0.981,0.148,-5.34,-1.59,4.36
233221.324781,0.107,0.974,0.149,-5.04,-2.69,4.82
233221.335228,0.106,0.968,0.149,-4.82,-3.85,5.19
233221.348772,0.107,0.962,0.146,-4.03,-6.1,5.28
233221.354375,0.102,0.961,0.138,-4.03,-7.2,5.16
233221.363873,0.101,0.958,0.132,-4.0,-8.18,4.85
233221.374225,0.098,0.957,0.127,-3.72,-8.91,4.46
233221.385152,0.096,0.961,0.121,-3.39,-9.4,4.06
233221.394958,0.093,0.967,0.119,-2.9,-9.7,3.85
233221.405440,0.086,0.972,0.115,-1.92,-10.07,3.63
233221.418679,0.088,0.972,0.114,-0.73,-10.28,3.57
233221.424295,0.089,0.971,0.109,0.34,-10.28,3.48
233221.434527,0.089,0.968,0.104,1.07,-10.13,3.11
233221.444414,0.089,0.967,0.099,1.37,-9.83,2.72
233221.454648,0.085,0.966,0.095,1.62,-9.46,2.47
233221.465660,0.085,0.962,0.092,1.86,-9.13,2.23
233221.475256,0.084,0.958,0.089,2.04,-8.64,2.01
233221.488817,0.086,0.954,0.09,2.26,-8.09,1.77
233221.494590,0.088,0.949,0.091,2.38,-7.6,1.43
233221.504263,0.092,0.951,0.093,2.38,-7.29,0.82
233221.514360,0.089,0.954,0.091,1.86,-6.74,0.09
233221.524766,0.086,0.957,0.093,1.34,-6.47,-0.64
233221.535166,0.082,0.958,0.095,1.22,-6.1,-1.37
233221.545409,0.076,0.96,0.1,1.34,-5.89,-1.89
233221.556027,0.075,0.961,0.107,1.59,-5.77,-2.01
233221.569056,0.077,0.957,0.114,1.71,-5.62,-2.01
233221.574427,0.081,0.954,0.116,1.92,-5.71,-2.11
233221.584580,0.086,0.951,0.114,2.35,-5.83,-2.14
233221.594569,0.089,0.95,0.112,2.5,-5.95,-2.38
233221.605133,0.092,0.953,0.115,2.29,-6.29,-2.78
233221.615859,0.092,0.956,0.121,2.17,-6.78,-3.11
233221.625571,0.093,0.956,0.126,2.17,-7.39,-3.2
233221.638736,0.094,0.959,0.13,2.14,-8.27,-3.11
233221.645173,0.093,0.961,0.13,2.01,-9.22,-2.75
233221.654387,0.093,0.963,0.13,2.29,-10.41,-2.26
233221.664715,0.095,0.961,0.129,2.72,-11.54,-1.89
233221.675122,0.095,0.958,0.13,2.9,-12.45,-1.56
233221.685868,0.094,0.953,0.131,2.75,-13.34,-1.34
233221.698977,0.094,0.948,0.131,2.32,-14.16,-1.22
233221.704697,0.094,0.95,0.128,1.8,-14.74,-1.04
233221.714776,0.094,0.954,0.128,1.31,-15.17,-0.79
233221.724226,0.096,0.954,0.129,1.25,-15.81,-0.76
233221.734511,0.099,0.956,0.12,1.22,-16.24,-0.89
233221.744802,0.1,0.954,0.117,0.76,-16.39,-1.22
233221.758169,0.099,0.954,0.116,0.49,-16.27,-1.98
233221.764007,0.097,0.955,0.109,0.09,-15.96,-2.41
233221.773914,0.094,0.959,0.107,-0.52,-15.44,-2.81
233221.784309,0.093,0.963,0.109,-1.13,-14.86,-2.99
233221.794512,0.095,0.969,0.109,-1.43,-14.22,-3.11
233221.804913,0.096,0.973,0.109,-1.74,-13.46,-3.39
233221.818458,0.098,0.982,0.105,-2.14,-12.85,-3.51
233221.824385,0.098,0.995,0.102,-2.66,-12.3,-3.85
233221.833951,0.096,1.007,0.101,-3.23,-11.84,-4.15
233221.844194,0.095,1.02,0.102,-3.63,-11.44,-4.24
233221.854828,0.093,1.033,0.104,-3.94,-11.23,-4.0
233221.864988,0.09,1.04,0.106,-4.12,-10.99,-3.66
233221.878403,0.089,1.043,0.106,-3.85,-10.77,-3.05
233221.883915,0.091,1.041,0.109,-3.51,-10.74,-2.35
233221.893846,0.092,1.035,0.111,-3.08,-10.59,-1.65
233221.904638,0.099,1.024,0.11,-2.78,-10.5,-0.92
233221.914640,0.104,1.014,0.111,-2.78,-10.32,-0.18
233221.925309,0.112,1.003,0.109,-3.02,-10.22,0.37
233221.938571,0.118,0.996,0.107,-3.51,-10.04,0.92
233221.944037,0.119,0.992,0.108,-3.94,-10.1,1.37
233221.954268,0.122,0.988,0.109,-4.21,-10.22,2.11
233221.964649,0.123,0.983,0.111,-4.43,-10.47,2.69
233221.974841,0.122,0.975,0.109,-4.33,-10.32,3.27
233221.988293,0.123,0.969,0.108,-3.88,-10.19,4.0
233221.993929,0.125,0.968,0.104,-3.72,-9.95,4.36
233222.003770,0.128,0.961,0.102,-4.12,-9.52,4.49
233222.014660,0.125,0.955,0.099,-4.79,-8.91,4.3
233222.024182,0.122,0.954,0.099,-5.74,-8.12,4.06
233222.034558,0.12,0.958,0.106,-6.56,-7.35,3.85
233222.044879,0.116,0.964,0.112,-6.99,-6.56,3.85
233222.055221,0.113,0.967,0.118,-7.17,-5.86,4.03
233222.068250,0.113,0.969,0.12,-6.81,-5.28,4.06
233222.073559,0.116,0.968,0.121,-6.47,-4.61,4.0
233222.083829,0.116,0.966,0.121,-6.07,-4.03,3.63
233222.093983,0.116,0.965,0.124,-6.23,-3.45,3.05
233222.104166,0.118,0.962,0.132,-6.68,-2.87,2.47
233222.115117,0.123,0.96,0.137,-7.84,-2.29,1.62
233222.124751,0.125,0.961,0.145,-9.8,-1.8,0.61
233222.138135,0.128,0.961,0.158,-11.75,-1.19,-0.12
233222.143769,0.133,0.954,0.174,-13.09,-0.73,-0.79
233222.153885,0.141,0.944,0.187,-13.31,-0.55,-1.19
233222.164125,0.146,0.941,0.196,-13.46,-0.58,-1.34
233222.174484,0.151,0.933,0.211,-13.64,-1.01,-1.34
233222.184890,0.161,0.919,0.22,-12.6,-1.65,-1.4
233222.198287,0.177,0.901,0.222,-11.66,-2.38,-1.77
233222.203762,0.192,0.89,0.223,-11.47,-3.08,-2.72
233222.213713,0.201,0.881,0.222,-12.45,-4.12,-4.24
233222.224264,0.203,0.876,0.215,-14.01,-5.1,-6.01
233222.234728,0.204,0.877,0.212,-15.9,-5.58,-7.29
233222.245108,0.205,0.876,0.213,-17.55,-6.01,-8.27
233222.258292,0.204,0.876,0.214,-18.04,-6.29,-8.61
233222.264118,0.204,0.876,0.213,-17.58,-6.5,-7.75
233222.273838,0.206,0.874,0.213,-16.54,-6.59,-6.93
233222.284295,0.208,0.874,0.209,-15.11,-6.5,-6.07
233222.294742,0.205,0.878,0.201,-13.98,-6.41,-5.28
233222.305009,0.2,0.884,0.193,-13.15,-5.89,-4.73
233222.318390,0.195,0.895,0.187,-12.76,-5.04,-4.24
233222.324020,0.188,0.917,0.182,-12.94,-3.91,-3.88
233222.334028,0.182,0.943,0.184,-13.34,-2.81,-3.27
233222.344193,0.168,0.963,0.187,-12.7,-2.14,-2.35
233222.354996,0.148,0.985,0.181,-11.08,-1.62,-1.04
233222.367007,0.129,1.015,0.177,-9.4,-1.13,0.82
233222.378706,0.109,1.045,0.175,-7.72,-0.55,2.93
233222.385082,0.096,1.067,0.172,-5.98,-0.15,4.97
233222.394171,0.084,1.082,0.169,-4.18,0.21,6.26
233222.404704,0.082,1.084,0.167,-2.9,0.64,6.9
233222.414619,0.078,1.08,0.168,-2.87,0.92,6.47
233222.425029,0.068,1.08,0.168,-2.93,1.25,5.89
233222.435091,0.061,1.076,0.177,-2.59,1.92,5.46
233222.448679,0.055,1.069,0.181,-1.25,2.72,5.25
233222.454062,0.049,1.059,0.185,0.52,3.66,5.43
233222.463901,0.046,1.047,0.184,3.23,4.64,5.92
233222.474059,0.047,1.03,0.185,6.74,5.68,6.9
233222.484532,0.052,1.002,0.184,10.62,6.81,8.06
233222.494869,0.06,0.968,0.178,13.64,8.15,8.85
233222.505336,0.068,0.94,0.17,14.83,9.46,9.19
233222.519858,0.073,0.92,0.167,14.34,10.83,9.31
233222.525877,0.072,0.909,0.16,12.51,12.15,9.13
233222.534418,0.067,0.905,0.156,10.16,13.49,9.09
233222.544859,0.063,0.907,0.157,7.63,14.8,9.13
233222.555741,0.061,0.915,0.161,4.91,16.05,9.19
233222.568631,0.061,0.926,0.17,2.75,16.79,9.34
233222.574754,0.059,0.938,0.18,1.34,16.91,9.64
233222.584129,0.059,0.963,0.193,1.31,16.75,9.83
233222.595831,0.057,0.992,0.205,2.84,15.9,10.59
233222.605195,0.058,1.01,0.221,6.2,14.16,11.63
233222.618407,0.064,1.018,0.226,11.38,11.72,12.57
233222.625395,0.073,1.011,0.222,16.75,8.67,13.31
233222.634394,0.082,0.994,0.211,20.87,5.46,13.46
233222.646124,0.085,0.981,0.202,22.77,2.26,13.4
233222.656501,0.087,0.971,0.196,23.26,-1.19,13.58
233222.670026,0.094,0.96,0.189,22.31,-4.52,13.31
233222.675676,0.101,0.958,0.178,19.29,-7.66,12.79
233222.685324,0.107,0.967,0.169,14.8,-10.83,11.9
233222.696681,0.111,0.979,0.164,10.22,-13.76,10.65
233222.709349,0.11,0.99,0.166,6.01,-16.39,9.0
233222.717164,0.11,1.009,0.179,2.5,-18.74,7.14
233222.724593,0.114,1.025,0.193,1.01,-20.84,5.83
233222.734718,0.118,1.036,0.206,1.31,-22.68,5.07
233222.744965,0.12,1.039,0.214,2.84,-24.54,4.67
233222.755618,0.12,1.045,0.221,4.73,-26.15,4.55
233222.769048,0.121,1.046,0.22,6.16,-27.77,4.97
233222.774959,0.123,1.049,0.216,7.26,-29.3,5.52
233222.784211,0.127,1.044,0.215,7.42,-30.55,6.26
233222.794493,0.132,1.028,0.215,7.48,-32.26,7.14
233222.804827,0.14,1.007,0.217,7.57,-33.6,8.21
233222.815428,0.151,0.985,0.22,7.39,-34.7,9.25
233222.829359,0.159,0.963,0.221,6.74,-35.68,10.25
233222.834774,0.169,0.939,0.222,5.77,-36.38,10.83
233222.844517,0.178,0.911,0.217,4.55,-37.08,11.17
233222.855126,0.184,0.896,0.21,3.6,-37.69,10.9
233222.865871,0.187,0.891,0.198,3.3,-37.84,10.56
233222.879348,0.19,0.886,0.188,2.81,-37.9,9.86
233222.884836,0.186,0.889,0.172,1.65,-37.97,8.55
233222.894675,0.178,0.897,0.159,-0.67,-37.87,7.08
233222.905300,0.168,0.9,0.147,-4.33,-37.81,5.68
233222.916658,0.156,0.9,0.133,-8.85,-37.63,3.97
233222.929793,0.146,0.908,0.126,-17.94,-36.5,1.98
233222.935197,0.139,0.921,0.124,-20.39,-35.89,1.92
233222.944484,0.134,0.931,0.128,-21.0,-35.43,2.01
233222.954829,0.137,0.935,0.129,-20.54,-35.16,1.92
233222.965656,0.136,0.937,0.128,-19.2,-35.0,1.59
233222.979258,0.138,0.94,0.121,-17.73,-34.58,0.58
233222.985376,0.143,0.945,0.104,-15.2,-34.15,-0.85
233222.994856,0.147,0.944,0.098,-12.02,-33.91,-2.2
233223.004900,0.149,0.941,0.089,-9.28,-33.3,-3.81
233223.015525,0.152,0.935,0.086,-6.96,-32.56,-5.46
233223.029678,0.153,0.926,0.088,-5.49,-31.92,-7.05
233223.035191,0.162,0.91,0.094,-5.13,-31.34,-8.64
233223.045474,0.167,0.901,0.098,-5.86,-30.73,-10.07
233223.054773,0.176,0.902,0.102,-7.54,-30.0,-11.2
233223.065840,0.183,0.906,0.108,-9.16,-29.21,-12.02
233223.078799,0.189,0.912,0.114,-9.4,-28.44,-12.3
233223.084964,0.195,0.916,0.123,-8.48,-27.68,-12.39
233223.094867,0.199,0.918,0.133,-7.29,-26.86,-12.45
233223.104782,0.203,0.924,0.14,-6.07,-25.94,-12.51
233223.116155,0.203,0.93,0.144,-5.04,-25.27,-12.24
233223.129684,0.199,0.934,0.148,-4.12,-24.51,-11.47
233223.135236,0.195,0.932,0.149,-2.99,-23.35,-10.19
233223.145722,0.192,0.929,0.15,-1.71,-21.94,-8.51
233223.156006,0.192,0.928,0.15,-0.37,-20.51,-6.35
233223.166331,0.192,0.925,0.155,0.85,-18.86,-4.03
233223.178587,0.194,0.922,0.162,1.68,-17.52,-2.23
233223.185229,0.201,0.921,0.175,2.23,-16.57,-1.16
233223.193964,0.206,0.923,0.185,3.02,-16.21,-0.67
233223.205910,0.212,0.925,0.188,4.33,-16.11,-0.67
233223.216474,0.221,0.93,0.185,6.1,-16.21,-1.1
233223.225709,0.233,0.936,0.177,8.51,-16.33,-1.89
233223.238435,0.245,0.941,0.165,11.9,-16.69,-3.36
233223.244497,0.254,0.944,0.153,15.72,-16.88,-5.04
233223.254480,0.256,0.948,0.143,19.14,-17.03,-7.05
233223.266912,0.254,0.94,0.129,20.91,-16.54,-9.09
233223.275528,0.248,0.936,0.116,20.94,-15.35,-11.2
233223.289884,0.246,0.945,0.112,19.1,-13.86,-13.18
233223.294969,0.242,0.961,0.105,15.75,-12.24,-14.68
233223.304946,0.234,0.978,0.102,11.51,-10.32,-15.59
233223.315507,0.223,0.994,0.104,7.08,-7.9,-16.69
233223.329335,0.212,1.013,0.112,3.42,-5.62,-16.85
233223.334891,0.204,1.026,0.122,0.43,-3.3,-16.24
233223.344172,0.197,1.03,0.128,-2.32,-1.28,-15.23
233223.354941,0.189,1.027,0.135,-4.21,0.31,-13.4
233223.365815,0.185,1.015,0.14,-4.18,1.28,-10.9
233223.375311,0.183,0.991,0.136,-2.66,1.92,-8.03
233223.389402,0.186,0.959,0.127,-1.01,2.26,-4.97
233223.394110,0.186,0.929,0.116,0.15,2.26,-2.17
233223.403942,0.188,0.899,0.1,0.34,1.92,0.64
233223.414528,0.192,0.872,0.089,-0.27,1.65,2.93
233223.424596,0.199,0.856,0.082,-0.89,1.22,4.03
233223.435492,0.203,0.851,0.078,-1.71,0.55,4.61
233223.445083,0.199,0.861,0.07,-2.5,-0.31,4.82
233223.455832,0.197,0.88,0.065,-2.84,-1.5,4.58
233223.469795,0.195,0.905,0.06,-1.86,-2.56,3.36
233223.474764,0.192,0.929,0.05,-0.34,-3.42,1.28
233223.484620,0.18,0.955,0.039,1.01,-4.36,-1.62
233223.494262,0.167,0.983,0.031,2.93,-5.31,-4.46
233223.505124,0.153,0.997,0.027,4.79,-5.83,-6.99
233223.515618,0.143,1.004,0.021,6.9,-5.92,-9.22
233223.525414,0.134,1.007,0.021,8.09,-5.43,-10.77
233223.539198,0.124,1.006,0.027,8.85,-4.73,-11.51
233223.545270,0.121,0.99,0.031,9.34,-3.36,-11.75
233223.554342,0.123,0.971,0.039,9.74,-1.62,-11.51
233223.565386,0.128,0.962,0.05,9.8,0.18,-10.71
233223.576490,0.135,0.957,0.05,10.22,2.26,-9.25
233223.585854,0.151,0.942,0.044,10.93,4.52,-7.35
233223.599029,0.171,0.929,0.039,10.5,6.53,-6.29
233223.604761,0.182,0.925,0.038,9.52,8.24,-5.95
233223.614151,0.191,0.924,0.039,8.3,9.52,-5.86
233223.624537,0.202,0.929,0.039,6.87,10.13,-6.01
233223.635478,0.208,0.941,0.035,5.4,10.35,-6.84
233223.645391,0.204,0.966,0.037,4.55,10.01,-7.48
233223.658903,0.198,0.995,0.039,4.82,9.13,-7.54
233223.666026,0.191,1.015,0.034,5.62,8.09,-7.39
233223.675609,0.189,1.033,0.028,6.04,6.96,-7.11
233223.684212,0.194,1.048,0.027,6.53,5.58,-6.01
233223.694473,0.198,1.051,0.025,6.65,3.51,-5.07
233223.705577,0.199,1.054,0.025,6.29,1.4,-4.76
233223.716403,0.198,1.052,0.018,5.37,-1.07,-4.55
233223.726144,0.188,1.05,0.006,3.05,-2.78,-4.03
233223.738715,0.178,1.039,-0.002,0.15,-2.9,-2.69
233223.745178,0.172,1.034,-0.001,-2.72,-2.69,-0.58
233223.754073,0.182,1.037,0.008,-4.12,-3.02,2.72
233223.765413,0.19,1.019,0.004,-4.24,-3.97,5.83
233223.776254,0.196,1.003,0.011,-5.4,-4.21,7.2
233223.785901,0.198,1.008,0.018,-6.13,-4.55,8.15
233223.795342,0.193,1.009,0.015,-6.16,-5.28,9.37
233223.810096,0.19,1.006,0.015,-6.74,-5.19,10.1
233223.814783,0.188,1.012,0.016,-7.63,-5.34,10.35
233223.825593,0.179,1.021,0.007,-8.73,-5.74,10.59
233223.843258,0.172,1.026,0.009,-10.07,-5.58,10.9
233223.845234,0.167,1.026,0.013,-10.93,-5.62,11.02
233223.859973,0.164,1.018,0.017,-11.54,-5.98,10.86
233223.867632,0.157,1.009,0.01,-11.6,-6.04,10.71
233223.874619,0.151,1.002,0.012,-11.69,-5.19,10.25
233223.887860,0.146,0.993,0.015,-11.35,-4.82,10.19
233223.896420,0.14,0.982,0.012,-10.25,-4.52,10.53
233223.909557,0.144,0.969,0.016,-9.06,-3.91,10.9
233223.914874,0.15,0.951,0.008,-7.93,-3.57,10.9
233223.924303,0.153,0.933,0.01,-8.03,-2.59,10.5
233223.935174,0.158,0.92,0.023,-8.42,-2.26,9.83
233223.944694,0.163,0.907,0.026,-9.19,-2.62,9.55
233223.955130,0.17,0.9,0.029,-10.9,-2.2,9.28
233223.968992,0.18,0.906,0.037,-12.45,-1.83,9.22
233223.974188,0.184,0.907,0.029,-13.67,-2.96,9.46
233223.984204,0.189,0.906,0.033,-14.47,-3.36,9.61
233223.994309,0.183,0.902,0.03,-14.1,-3.91,9.77
233224.004865,0.169,0.917,0.024,-13.31,-3.63,9.86
233224.015482,0.155,0.945,0.015,-11.72,-3.6,10.83
233224.029165,0.152,0.969,0.01,-10.38,-3.6,12.6
233224.034985,0.158,0.984,-0.004,-10.01,-3.97,13.15
233224.045512,0.159,0.997,-0.01,-10.77,-4.94,12.24
233224.055012,0.143,1.012,-0.015,-12.15,-6.1,9.92
233224.066655,0.123,1.02,-0.003,-13.43,-6.74,7.54
233224.078763,0.102,1.014,0.006,-13.0,-7.05,5.95
233224.085133,0.086,0.999,0.023,-11.6,-6.81,5.19
233224.094099,0.073,0.986,0.038,-8.67,-6.62,5.52
233224.104656,0.055,0.974,0.045,-5.62,-5.37,6.71
233224.115805,0.04,0.965,0.063,-3.33,-2.66,8.21
233224.126186,0.04,0.953,0.089,-1.13,-0.09,9.74
233224.136363,0.055,0.923,0.111,0.49,1.71,10.96
233224.149971,0.074,0.893,0.134,2.41,3.54,11.2
233224.154431,0.094,0.868,0.152,3.88,4.82,10.16
233224.165973,0.104,0.859,0.167,4.52,5.68,8.73
233224.174605,0.108,0.865,0.171,6.1,7.23,7.66
233224.184726,0.113,0.866,0.18,7.6,8.88,6.87
233224.195912,0.115,0.874,0.195,7.75,9.89,5.4
233224.207224,0.114,0.891,0.21,6.81,10.68,4.06
233224.220959,0.112,0.906,0.218,6.32,11.54,2.93
233224.224634,0.12,0.925,0.219,7.26,12.73,1.8
233224.235054,0.131,0.952,0.231,7.54,13.09,1.04
233224.245147,0.142,0.983,0.256,7.14,12.27,0.09
233224.256128,0.156,1.013,0.275,6.93,10.9,-1.28
233224.266047,0.167,1.032,0.304,6.65,9.22,-3.17
233224.278911,0.18,1.031,0.328,8.15,6.81,-5.28
233224.284848,0.195,1.03,0.339,12.09,4.49,-7.11
233224.295133,0.205,1.043,0.364,16.97,2.84,-6.9
233224.305696,0.23,1.059,0.383,24.69,1.46,-4.21
233224.316610,0.274,1.069,0.4,34.3,0.18,-0.34
233224.325741,0.328,1.077,0.406,45.96,-0.98,4.36
233224.338736,0.394,1.074,0.394,57.28,-0.61,9.43
233224.346610,0.476,1.064,0.366,64.03,0.82,14.77
233224.354537,0.569,1.036,0.338,62.38,3.54,18.98
233224.365576,0.661,1.012,0.32,51.79,7.66,21.27
233224.379962,0.741,1.012,0.295,34.46,12.85,22.98
233224.384426,0.805,1.043,0.269,13.18,19.5,26.0
233224.395574,0.857,1.11,0.254,-7.84,27.56,31.56
233224.405181,0.9,1.187,0.255,-23.8,35.98,39.67
233224.416645,0.929,1.248,0.26,-31.34,44.28,50.05
233224.429215,0.951,1.278,0.256,-31.86,53.07,62.11
233224.436410,0.967,1.28,0.246,-29.24,62.87,74.13
233224.445830,0.971,1.256,0.25,-26.64,72.45,84.72
233224.455737,0.956,1.217,0.256,-25.97,80.17,92.68
233224.469708,0.922,1.203,0.229,-29.42,87.25,99.15
233224.476203,0.896,1.22,0.177,-37.78,95.1,106.05
233224.485256,0.887,1.246,0.148,-49.13,103.7,112.49
233224.499287,0.893,1.239,0.167,-58.2,112.0,116.67
233224.505993,0.916,1.186,0.235,-60.4,120.76,114.29
233224.515654,0.925,1.12,0.301,-57.74,122.44,110.57
233224.529694,0.926,1.064,0.316,-52.43,125.61,107.64
233224.534695,0.973,1.027,0.304,-40.99,129.61,104.59
233224.547115,1.072,0.999,0.295,-21.91,131.23,100.07
233224.560154,1.254,0.935,0.309,1.04,127.32,89.18
233224.564937,1.535,0.71,0.26,23.32,117.5,72.63
233224.574689,1.458,0.623,0.16,40.8,104.04,54.54
233224.585534,1.303,0.553,0.049,54.41,92.35,35.74
233224.599055,1.219,0.437,0.017,65.43,83.29,15.72
233224.604750,1.177,0.264,0.05,72.05,70.71,-9.83
233224.615580,1.108,0.082,0.057,75.75,53.1,-42.91
233224.625248,0.933,-0.061,0.034,64.97,30.7,-82.19
233224.639239,0.606,-0.127,-0.007,35.92,6.07,-126.04
233224.646672,0.122,-0.075,-0.147,0.55,-13.28,-169.84
233224.655817,-0.481,0.113,-0.319,-34.73,-23.65,-208.62
233224.665525,-1.023,0.412,-0.453,-66.93,-31.01,-238.23
233224.679311,-1.332,0.606,-0.693,-77.24,-44.53,-257.61
233224.685481,-1.644,0.41,-0.964,-87.31,-65.31,-281.81
233224.696820,-2.05,0.216,-0.792,-154.67,-84.41,-322.98
233224.710049,-2.484,0.375,0.017,-293.47,-89.63,-348.86
233224.715552,-2.699,0.757,1.012,-468.43,-84.14,-321.73
233224.726402,-2.508,1.111,1.439,-587.66,-68.42,-233.31
233224.740908,-1.78,1.322,0.947,-581.07,-47.73,-112.83
233224.745227,-0.768,1.422,0.167,-466.6,-30.37,-12.57
233224.755150,-0.257,1.436,-0.088,-300.91,-24.17,53.38
233224.769409,-0.387,1.236,0.149,-138.65,-20.39,101.5
233224.775212,-0.655,0.886,0.64,0.31,-4.39,124.64
233224.786041,-0.802,0.486,1.024,103.27,10.32,138.83
233224.795737,-0.875,0.151,1.084,157.29,19.38,161.29
233224.809422,-0.894,0.046,0.897,168.86,26.86,176.52
233224.815751,-0.829,0.061,0.714,151.92,34.42,183.51
233224.825721,-0.698,0.139,0.608,128.06,39.31,185.71
233224.839820,-0.565,0.266,0.543,107.79,40.22,184.42
233224.845969,-0.464,0.388,0.481,92.38,39.09,180.15
233224.856092,-0.368,0.469,0.471,80.48,35.04,174.26
233224.869594,-0.252,0.542,0.479,71.2,25.7,168.46
233224.876874,-0.184,0.617,0.466,61.59,11.9,160.89
233224.884887,-0.172,0.687,0.428,48.86,-3.05,153.9
233224.895806,-0.141,0.736,0.376,32.99,-17.12,150.55
233224.910028,-0.094,0.811,0.351,13.92,-30.3,146.4
233224.915093,-0.046,0.876,0.376,-3.81,-42.85,140.48
233224.925179,0.027,0.867,0.411,-12.67,-56.4,134.46
233224.938606,0.117,0.811,0.432,-11.69,-71.47,126.22
233224.945217,0.216,0.755,0.446,-5.01,-86.15,114.08
233224.955381,0.322,0.71,0.435,2.99,-98.97,100.28
233224.967101,0.383,0.704,0.388,12.6,-107.09,86.98
233224.979441,0.408,0.704,0.33,20.51,-110.72,76.08
233224.984816,0.438,0.668,0.274,23.13,-111.48,65.98
233224.994827,0.46,0.617,0.235,16.39,-111.12,53.56
233225.005397,0.49,0.575,0.269,2.14,-110.81,39.25
233225.018915,0.508,0.596,0.352,-10.35,-112.49,24.11
233225.025368,0.513,0.678,0.457,-16.51,-118.81,13.64
233225.035200,0.53,0.729,0.537,-13.92,-130.41,9.43
233225.045597,0.561,0.741,0.569,0.7,-142.92,5.71
233225.059099,0.578,0.755,0.451,25.45,-154.12,1.62
233225.065968,0.599,0.749,0.248,45.05,-160.37,-1.98
233225.075331,0.683,0.703,0.11,53.16,-159.79,-8.03
233225.088257,0.742,0.651,0.022,53.8,-156.38,-16.66
233225.094879,0.737,0.615,0.002,46.08,-153.14,-25.57
233225.104749,0.723,0.644,0.048,32.2,-148.99,-35.07
233225.115618,0.717,0.758,0.137,19.99,-144.87,-43.43
233225.128712,0.729,0.883,0.213,17.67,-142.92,-47.4
233225.135225,0.812,0.932,0.237,30.92,-140.08,-47.09
233225.145084,0.953,0.9,0.211,53.07,-133.0,-45.59
233225.158245,1.06,0.823,0.158,71.38,-124.39,-46.69
233225.165637,1.089,0.746,0.103,80.2,-116.37,-51.06
233225.175108,1.059,0.691,0.073,79.74,-110.42,-55.48
233225.185770,1.006,0.694,0.028,72.36,-105.5,-57.5
233225.199288,0.952,0.741,-0.003,58.05,-99.37,-56.64
233225.204801,0.913,0.794,-0.029,44.47,-90.73,-54.54
233225.215236,0.886,0.86,-0.071,34.79,-79.32,-51.3
233225.225624,0.876,0.914,-0.049,28.78,-66.5,-46.78
233225.239772,0.883,0.933,0.02,35.77,-53.56,-40.86
233225.244887,0.87,0.912,0.063,51.64,-41.51,-33.48
233225.255517,0.865,0.84,0.113,63.75,-30.61,-25.3
233225.265740,0.896,0.732,0.145,72.63,-20.45,-18.8
233225.278920,0.899,0.671,0.117,75.05,-11.02,-14.59
233225.286250,0.889,0.63,0.088,64.7,-3.17,-8.03
233225.294623,0.929,0.624,0.049,49.5,2.01,-1.71
233225.305263,0.922,0.703,0.005,33.36,5.25,-0.82
233225.315618,0.922,0.786,-0.052,18.68,7.32,6.65
233225.328594,0.907,0.85,-0.112,5.89,9.74,17.61
233225.334571,0.892,0.868,-0.104,-4.67,11.2,26.22
233225.344294,0.9,0.836,-0.072,-4.64,10.8,31.53
233225.354769,0.909,0.783,-0.032,1.89,9.74,32.44
233225.365407,0.91,0.76,-0.004,8.82,9.55,30.43
233225.378754,0.913,0.754,0.007,14.01,10.62,30.85
233225.384794,0.932,0.735,0.024,19.5,13.0,33.27
233225.395191,0.953,0.712,0.004,27.77,16.69,35.13
233225.405100,0.996,0.679,-0.035,32.72,22.55,36.44
233225.418694,1.062,0.661,-0.062,31.34,30.98,36.07
233225.424744,1.12,0.651,-0.037,23.87,40.16,35.95
233225.434570,1.153,0.612,0.017,14.92,48.1,36.71
233225.445237,1.172,0.557,0.063,7.97,55.73,37.93
233225.455935,1.196,0.516,0.094,1.19,64.39,40.53
233225.469140,1.246,0.503,0.107,-5.01,74.19,45.17
233225.475248,1.323,0.503,0.134,-7.78,84.96,51.73
233225.484875,1.407,0.499,0.138,-5.31,94.3,58.63
233225.495604,1.482,0.491,0.097,-4.27,102.33,63.84
233225.508735,1.559,0.461,0.063,-8.61,110.69,66.84
233225.514752,1.607,0.419,0.065,-16.54,118.59,66.81
233225.524948,1.625,0.395,0.127,-27.89,125.03,65.22
233225.535559,1.656,0.375,0.235,-40.44,129.15,63.66
233225.548969,1.696,0.352,0.301,-49.01,131.6,62.59
233225.555435,1.747,0.35,0.334,-50.54,133.3,63.66
233225.565538,1.851,0.37,0.335,-41.29,132.69,69.0
233225.578432,1.94,0.391,0.281,-21.55,128.79,75.26
233225.584721,1.967,0.409,0.189,5.46,123.23,77.76
233225.595232,1.951,0.328,0.069,32.35,118.02,70.96
233225.605580,1.941,0.094,-0.031,43.67,112.95,49.17
233225.620797,1.898,-0.192,-0.123,28.9,107.27,12.02
233225.625879,1.862,-0.475,-0.202,-12.12,102.51,-33.17
233225.635722,1.814,-0.703,-0.206,-72.21,96.1,-81.21
233225.649017,1.689,-0.767,-0.121,-136.39,87.44,-125.68
233225.654916,1.475,-0.643,0.02,-191.99,76.78,-157.2
233225.666061,1.216,-0.406,0.189,-227.7,64.64,-176.98
233225.680155,0.915,-0.073,0.34,-227.27,57.16,-195.81
233225.686117,0.622,0.195,0.442,-195.04,52.4,-218.73
233225.696122,0.256,0.314,0.442,-134.46,48.31,-259.07
233225.708310,-0.216,0.212,0.24,-60.91,47.67,-310.43
233225.715130,-0.956,0.011,-0.293,1.19,54.93,-377.91
233225.724675,-2.367,-0.12,-1.23,22.86,89.27,-455.31
233225.735572,-3.779,-0.156,-1.379,-47.61,165.87,-508.56
233225.750445,-3.717,-0.026,-0.363,-201.94,179.08,-525.93
233225.756331,-3.999,0.171,0.962,-373.27,117.47,-531.85
233225.766883,-3.996,0.721,2.555,-550.37,54.99,-513.35
233225.779998,-3.095,1.631,3.027,-674.55,-37.51,-412.12
233225.786646,-1.545,3.281,1.349,-548.57,-129.86,-225.38
233225.797157,-0.348,4.0,-0.147,-131.72,-109.04,21.61
233225.809721,0.47,3.123,0.188,251.56,-112.16,202.12
233225.816228,-0.12,1.281,1.019,468.12,-149.72,177.47
233225.828350,-1.07,0.072,1.389,521.59,-131.35,124.94
233225.834719,-1.304,-0.677,1.409,481.73,-68.18,118.11
233225.845347,-1.103,-0.977,0.878,397.99,-21.85,112.4
233225.858412,-0.917,-0.768,0.511,265.39,17.94,97.78
233225.865043,-0.583,-0.25,0.546,127.08,43.64,110.35
233225.876070,-0.311,0.207,0.634,34.79,43.0,134.53
233225.886181,-0.366,0.455,0.547,-8.76,34.21,148.26
233225.898845,-0.336,0.441,0.446,-29.97,30.55,163.73
233225.905780,-0.216,0.442,0.436,-43.7,18.52,166.72
233225.915485,-0.195,0.669,0.48,-60.12,-2.81,158.21
233225.930002,-0.19,1.031,0.605,-68.27,-24.2,158.54
233225.934752,-0.169,1.299,0.704,-47.82,-41.11,171.21
233225.945333,-0.125,1.325,0.747,-4.03,-52.19,189.58
233225.955593,-0.072,1.101,0.702,34.06,-59.82,203.8
233225.969988,-0.041,0.841,0.624,43.76,-63.3,202.8
233225.976112,-0.062,0.719,0.616,28.81,-64.09,187.48
233225.985334,-0.116,0.719,0.609,10.32,-66.81,170.05
233225.995876,-0.119,0.781,0.565,1.01,-70.62,158.21
233226.009008,-0.005,0.856,0.501,6.04,-74.22,152.26
233226.015690,0.172,0.894,0.415,24.72,-77.43,152.68
233226.025438,0.34,0.838,0.353,45.29,-79.26,157.63
233226.038020,0.451,0.737,0.328,56.52,-78.37,158.88
233226.044223,0.486,0.637,0.355,53.87,-76.78,151.49
233226.054746,0.439,0.559,0.402,41.29,-77.79,135.93
233226.065092,0.386,0.532,0.44,29.21,-81.06,118.93
233226.078522,0.362,0.579,0.445,24.81,-85.67,108.25
233226.084461,0.419,0.63,0.367,30.88,-89.91,111.55
233226.094762,0.559,0.624,0.278,34.06,-85.94,111.21
233226.108167,0.695,0.556,0.186,29.45,-80.78,103.82
233226.114120,0.78,0.444,0.131,19.62,-75.53,89.63
233226.124594,0.815,0.347,0.148,14.47,-73.0,72.42
233226.134973,0.789,0.31,0.193,15.84,-73.12,57.99
233226.148516,0.692,0.476,0.314,20.08,-73.98,50.51
233226.154251,0.738,0.531,0.338,29.66,-72.6,50.08
233226.164958,0.792,0.516,0.305,43.7,-68.85,51.15
233226.175002,0.85,0.444,0.274,58.29,-64.09,47.98
233226.188084,0.906,0.383,0.207,72.45,-59.91,39.74
233226.194399,0.927,0.368,0.12,81.15,-55.91,30.95
233226.204566,0.918,0.388,0.065,87.28,-51.91,24.11
233226.215203,0.881,0.441,0.038,97.11,-49.07,18.86
233226.228248,0.872,0.438,0.046,100.99,-48.4,14.56
233226.234305,0.928,0.343,0.076,92.68,-47.82,5.71
233226.244550,1.003,0.261,0.098,79.84,-45.9,-8.0
233226.255059,1.037,0.24,0.091,63.3,-44.86,-21.36
233226.268248,1.012,0.292,0.061,42.12,-44.65,-31.16
233226.274349,0.95,0.418,0.021,22.22,-43.55,-34.12
233226.284383,0.936,0.51,0.001,9.52,-41.05,-29.21
233226.294867,0.968,0.526,-0.016,11.29,-39.12,-24.78
233226.308159,0.997,0.523,-0.032,24.96,-38.12,-25.03
233226.314621,1.015,0.552,-0.015,40.89,-39.03,-27.31
233226.324109,1.003,0.612,-0.003,53.9,-41.99,-30.61
233226.334841,0.997,0.631,0.054,63.02,-45.59,-34.61
233226.348236,1.007,0.62,0.091,73.27,-49.75,-39.09
233226.354397,0.997,0.584,0.064,78.31,-52.98,-40.74
233226.364120,0.993,0.525,0.028,77.21,-53.41,-39.67
233226.375136,1.012,0.451,-0.016,74.89,-52.06,-37.11
233226.388630,1.052,0.376,-0.044,72.76,-49.93,-34.09
233226.396087,1.119,0.319,-0.077,69.73,-47.06,-29.69
233226.406374,1.191,0.295,-0.123,62.59,-41.87,-23.68
233226.416488,1.254,0.3,-0.121,48.71,-34.18,-17.46
233226.429514,1.307,0.318,-0.092,33.6,-25.57,-12.85
233226.435100,1.352,0.334,-0.072,21.64,-16.51,-9.89
233226.444609,1.38,0.364,-0.057,13.15,-7.02,-6.26
233226.463000,1.421,0.381,-0.026,7.57,4.03,0.95
233226.465596,1.482,0.374,0.039,3.78,14.62,9.83
233226.475571,1.529,0.354,0.099,4.58,22.13,17.21
233226.490179,1.547,0.348,0.122,9.77,27.65,23.1
233226.496403,1.55,0.355,0.09,16.27,33.17,29.66
233226.505930,1.522,0.35,0.016,19.78,39.09,36.13
233226.516017,1.509,0.338,-0.048,16.91,46.05,41.47
233226.529300,1.492,0.303,-0.094,8.7,53.65,45.56
233226.535678,1.499,0.272,-0.109,-4.33,62.26,48.49
233226.545291,1.501,0.25,-0.083,-20.29,69.73,49.65
233226.556391,1.533,0.226,-0.027,-34.67,77.76,50.81
233226.570009,1.565,0.209,0.019,-44.01,84.23,51.94
233226.575497,1.589,0.205,0.05,-46.24,89.3,53.96
233226.586277,1.596,0.211,0.099,-40.16,92.56,55.82
233226.595270,1.571,0.221,0.14,-26.31,93.91,57.37
233226.608542,1.538,0.227,0.157,-7.48,94.27,57.59
233226.616933,1.531,0.221,0.163,15.47,93.97,55.21
233226.624619,1.503,0.196,0.151,38.82,92.2,47.98
233226.635257,1.498,0.14,0.136,56.58,89.18,35.34
233226.650990,1.51,0.053,0.091,65.58,85.02,16.08
233226.656075,1.544,-0.05,0.031,66.35,80.45,-7.6
233226.664372,1.583,-0.166,-0.028,58.29,76.66,-34.0
233226.675258,1.607,-0.282,-0.064,41.38,72.33,-62.2
233226.685653,1.59,-0.377,-0.076,18.8,67.57,-91.98
233226.700212,1.522,-0.44,-0.082,-5.49,62.5,-120.64
233226.706620,1.444,-0.507,-0.043,-28.81,57.92,-147.22
233226.716805,1.356,-0.542,0.036,-43.58,52.89,-175.88
233226.729722,1.205,-0.524,0.133,-50.57,45.05,-204.6
233226.734831,1.007,-0.486,0.282,-54.87,34.85,-236.82
233226.746363,0.781,-0.329,0.361,-51.15,24.57,-271.58
233226.755746,0.481,-0.087,0.222,-33.78,19.2,-300.39
233226.770053,0.019,0.116,-0.051,-7.35,21.85,-328.53
233226.776472,-0.657,0.193,-0.539,27.41,30.76,-365.52
233226.785244,-1.386,0.073,-1.087,50.9,39.19,-415.63
233226.799806,-1.865,0.012,-1.356,22.4,27.41,-468.49
233226.806186,-2.175,0.228,-1.117,-69.73,-8.27,-500.84
233226.816792,-2.548,0.364,-0.385,-245.8,-54.63,-519.61
233226.826906,-2.908,0.146,0.7,-524.52,-71.5,-529.74
233226.839516,-3.197,0.525,2.088,-900.2,-31.53,-477.1
233226.846212,-2.155,2.282,3.276,-1000.03,-16.21,-295.91
233226.856324,-0.619,4.0,1.924,-838.4,16.75,-53.32
233226.869296,0.733,3.971,0.074,-207.04,20.75,145.27
233226.876411,0.075,3.024,0.117,274.0,-87.74,156.32
233226.885780,-0.699,1.655,0.904,546.25,-135.26,155.34
233226.899867,-0.751,0.187,1.399,646.99,-125.03,165.62
233226.905751,-1.017,-0.606,1.328,623.86,-80.57,134.01
233226.917002,-1.197,-0.626,0.735,526.69,-8.7,104.92
233226.929193,-0.936,-0.538,0.293,363.02,69.8,109.1
233226.937029,-0.484,-0.448,0.187,180.58,120.88,118.93
233226.946040,-0.438,-0.162,0.238,15.35,144.47,106.78
233226.959425,-0.442,0.136,0.327,-109.53,147.92,106.14
233226.967904,-0.324,0.387,0.41,-181.74,135.32,119.02
233226.978819,-0.226,0.7,0.593,-217.57,112.95,124.79
233226.985430,-0.311,1.091,0.716,-210.79,85.91,128.33
233226.995507,-0.399,1.295,0.811,-175.15,60.09,140.75
233227.009635,-0.405,1.242,0.842,-123.2,36.26,156.44
233227.016338,-0.395,1.074,0.813,-73.73,14.53,168.52
233227.025276,-0.385,0.936,0.745,-45.9,-3.81,171.97
233227.035569,-0.355,0.896,0.713,-37.54,-17.55,171.58
233227.050227,-0.34,0.923,0.665,-30.67,-29.18,178.26
233227.054914,-0.323,0.911,0.585,-25.94,-40.96,188.09
233227.066108,-0.269,0.849,0.498,-28.63,-54.08,191.84
233227.079921,-0.183,0.771,0.388,-33.36,-67.6,188.21
233227.084942,-0.044,0.678,0.294,-34.85,-80.97,178.59
233227.095103,0.082,0.622,0.243,-35.1,-95.07,164.98
233227.107138,0.185,0.639,0.241,-33.23,-107.03,153.42
233227.119716,0.292,0.662,0.283,-21.64,-115.51,146.21
233227.126314,0.376,0.612,0.299,-2.84,-123.36,139.19
233227.135978,0.411,0.528,0.291,17.3,-130.53,127.29
233227.148940,0.429,0.481,0.289,38.15,-137.03,112.7
233227.154955,0.485,0.465,0.265,57.68,-144.54,99.55
233227.165687,0.621,0.451,0.261,70.5,-150.55,88.08
233227.178927,0.809,0.412,0.268,80.02,-153.23,76.54
233227.185021,0.95,0.343,0.254,88.78,-153.97,64.61
233227.195177,1.009,0.269,0.183,96.93,-152.5,52.83
233227.205881,0.976,0.235,0.075,98.12,-151.04,38.94
233227.218917,0.892,0.266,-0.011,93.2,-150.91,24.17
233227.225313,0.88,0.33,-0.045,91.95,-149.39,12.42
233227.236585,0.973,0.358,-0.043,96.13,-145.6,4.82
233227.250197,1.058,0.352,-0.042,96.26,-141.06,-1.98
233227.255745,1.142,0.356,-0.055,92.32,-132.33,-8.97
233227.266506,1.221,0.367,-0.007,84.63,-119.42,-16.24
233227.275518,1.275,0.366,0.061,76.75,-107.64,-22.8
233227.289985,1.278,0.386,0.087,68.48,-98.45,-27.65
233227.296531,1.247,0.406,0.122,54.2,-91.31,-29.82
233227.304997,1.198,0.422,0.124,41.29,-84.38,-33.3
233227.315700,1.168,0.431,0.138,31.83,-76.88,-37.6
233227.328998,1.162,0.469,0.082,27.77,-67.93,-40.86
233227.335167,1.168,0.557,0.019,22.16,-56.0,-39.92
233227.345071,1.183,0.633,0.013,16.21,-42.48,-35.16
233227.356018,1.175,0.672,0.013,15.14,-28.41,-29.66
233227.368945,1.146,0.651,0.058,14.62,-15.02,-25.42
233227.376239,1.079,0.634,0.131,14.98,-3.63,-23.41
233227.385096,1.002,0.608,0.207,13.37,3.33,-20.48
233227.395421,0.925,0.539,0.25,8.61,7.02,-18.04
233227.406684,0.864,0.492,0.209,0.95,10.47,-17.27
233227.420181,0.833,0.469,0.131,-10.71,15.87,-17.43
233227.426201,0.831,0.48,0.021,-17.12,23.87,-18.28
233227.436300,0.838,0.509,-0.088,-19.99,33.72,-18.65
233227.446822,0.865,0.487,-0.104,-20.29,43.49,-19.32
233227.460051,0.922,0.478,-0.074,-15.59,51.21,-23.41
233227.466122,0.976,0.514,0.014,-13.49,55.09,-29.63
233227.475158,1.017,0.585,0.133,-15.59,53.44,-35.4
233227.485757,1.044,0.672,0.22,-18.46,47.33,-39.83
233227.499109,1.073,0.721,0.257,-17.4,39.89,-41.47
233227.505669,1.11,0.72,0.223,-8.91,32.01,-40.62
233227.515034,1.169,0.668,0.134,3.6,24.99,-36.84
233227.525615,1.244,0.571,0.008,11.51,19.47,-31.1
233227.538935,1.299,0.485,-0.078,8.85,15.9,-25.33
233227.545802,1.318,0.469,-0.11,-1.34,14.83,-19.35
233227.555296,1.313,0.477,-0.061,-15.02,16.27,-10.04
233227.565785,1.299,0.493,0.038,-24.41,18.89,0.18
233227.576891,1.296,0.48,0.132,-27.8,23.22,12.97
233227.590180,1.321,0.445,0.205,-26.89,28.41,30.24
233227.595621,1.355,0.41,0.246,-24.23,32.93,49.01
233227.605202,1.4,0.397,0.261,-19.47,38.33,66.19
233227.615939,1.427,0.397,0.27,-11.93,43.73,81.76
233227.630140,1.445,0.329,0.231,-3.36,48.8,93.81
233227.636520,1.47,0.177,0.176,0.89,55.21,98.18
233227.645239,1.528,0.033,0.151,-1.01,63.88,95.03
233227.655577,1.615,-0.063,0.152,-7.9,73.03,88.9
233227.668631,1.683,-0.119,0.15,-21.0,89.27,74.34
233227.676924,1.737,-0.166,0.178,-25.57,96.26,66.71
233227.685080,1.786,-0.215,0.25,-30.76,100.13,56.46
233227.695810,1.81,-0.258,0.338,-37.63,102.05,47.27
233227.710505,1.873,-0.307,0.404,-47.76,102.02,39.43
233227.717307,1.976,-0.36,0.399,-58.78,100.19,33.39
233227.725365,2.171,-0.4,0.304,-66.62,94.12,26.46
233227.739606,2.145,-0.369,0.235,-68.85,83.1,14.89
233227.745787,2.09,-0.333,0.169,-66.68,72.15,-3.02
233227.755799,1.974,-0.296,0.14,-67.35,60.88,-30.95
233227.766883,1.853,-0.283,0.139,-67.26,47.79,-63.97
233227.776074,1.771,-0.315,0.124,-56.7,35.0,-100.92
233227.790724,1.651,-0.365,0.11,-38.21,22.1,-141.7
233227.796336,1.418,-0.388,0.078,-18.01,7.78,-183.45
233227.806352,1.107,-0.343,0.048,6.62,-1.74,-224.95
233227.816383,0.666,-0.221,0.065,36.99,-6.41,-270.46
233227.830122,0.016,-0.042,0.064,70.93,-2.96,-322.15
233227.835996,-0.934,0.26,-0.133,111.24,12.12,-381.24
233227.846217,-1.844,0.608,-0.405,153.94,33.78,-426.86
233227.859738,-2.066,0.584,-0.814,189.61,17.46,-460.31
233227.866463,-2.716,0.437,-1.275,223.49,-29.63,-524.74
233227.876119,-3.837,0.651,-0.897,170.57,-78.31,-604.24
233227.890582,-4.0,0.718,0.355,-26.18,-135.26,-648.0
233227.896256,-3.99,0.469,1.442,-346.42,-182.29,-632.8
233227.907806,-3.355,0.932,1.567,-673.7,-194.16,-518.42
233227.920111,-1.746,3.327,0.519,-620.93,-176.85,-316.05
233227.927539,-0.329,4.0,-1.066,-184.51,-105.5,0.92
233227.936236,0.502,3.39,-0.045,163.52,-49.47,258.52
233227.949106,-0.272,1.193,1.006,368.57,-24.81,254.01
233227.955877,-1.121,-0.206,0.95,434.8,39.8,220.5
233227.965754,-1.074,-0.557,0.648,370.46,116.28,217.81
233227.980151,-1.161,-0.301,0.284,242.59,161.57,185.58
233227.985073,-1.008,-0.127,0.152,89.36,191.99,182.04
233227.996160,-0.546,0.019,0.204,-40.83,204.5,191.38
233228.009979,-0.427,0.212,0.319,-138.83,197.76,199.84
233228.015402,-0.478,0.409,0.553,-210.36,178.35,205.36
233228.028973,-0.334,0.629,0.765,-241.49,148.63,209.39
233228.035001,-0.166,0.892,0.785,-216.96,114.81,210.76
233228.046522,-0.104,1.11,0.709,-158.73,85.45,212.29
233228.060170,-0.139,1.236,0.662,-92.53,63.91,213.6
233228.067381,-0.111,1.126,0.61,-31.59,49.78,219.61
233228.075297,-0.031,0.898,0.579,5.25,37.97,219.52
233228.085546,-0.026,0.763,0.607,17.4,28.44,208.08
233228.099803,-0.057,0.742,0.68,14.04,19.84,195.29
233228.106095,-0.026,0.777,0.727,4.88,9.49,186.04
233228.115195,0.025,0.791,0.722,0.55,-2.72,179.75
233228.125618,0.081,0.754,0.662,1.37,-15.41,175.66
233228.138795,0.171,0.65,0.588,-1.68,-25.64,172.28
233228.145178,0.246,0.561,0.495,-8.15,-32.81,167.88
233228.156058,0.289,0.565,0.472,-17.24,-37.6,163.73
233228.166198,0.316,0.631,0.495,-24.66,-41.84,160.31
233228.180430,0.326,0.698,0.541,-27.74,-47.73,157.78
233228.185591,0.351,0.714,0.608,-23.53,-56.7,155.22
233228.195452,0.419,0.697,0.613,-8.73,-67.02,150.7
233228.208852,0.498,0.673,0.542,8.45,-75.2,145.57
233228.215450,0.613,0.596,0.459,20.48,-78.46,139.38
233228.225673,0.721,0.502,0.34,31.56,-75.41,128.39
233228.236802,0.747,0.442,0.269,34.03,-69.22,114.84
233228.250836,0.737,0.398,0.272,29.97,-63.81,99.43
233228.256195,0.716,0.378,0.314,29.15,-62.11,82.77
233228.265781,0.684,0.402,0.329,37.35,-63.23,69.31
233228.275846,0.681,0.449,0.304,48.16,-66.32,62.44
233228.289870,0.729,0.445,0.318,44.92,-73.34,57.13
233228.295817,0.793,0.431,0.289,35.83,-81.76,46.36
233228.305103,0.832,0.484,0.243,26.67,-88.69,32.75
233228.316098,0.87,0.548,0.207,19.78,-94.49,19.99
233228.329013,0.91,0.543,0.146,21.45,-100.16,6.93
233228.335505,0.948,0.477,0.093,32.47,-104.31,-6.13
233228.345223,1.019,0.443,0.064,55.15,-105.93,-18.28
233228.355879,1.076,0.395,0.087,82.77,-109.01,-25.88
233228.369584,1.149,0.33,0.1,104.65,-114.38,-30.76
233228.375448,1.21,0.308,0.136,110.14,-120.21,-35.92
233228.385684,1.276,0.242,0.245,102.66,-128.06,-41.78
233228.400249,1.327,0.123,0.305,95.1,-139.07,-52.06
233228.406538,1.376,0.019,0.315,87.74,-147.62,-61.68
233228.415459,1.474,-0.052,0.262,83.62,-152.87,-63.72
233228.428628,1.581,-0.158,0.138,74.31,-157.41,-60.03
233228.435082,1.676,-0.276,-0.044,58.44,-152.68,-55.6
233228.445142,1.81,-0.335,-0.093,33.81,-134.98,-48.86
233228.455594,1.938,-0.326,-0.059,12.21,-112.61,-38.15
233228.470124,2.001,-0.33,-0.028,-5.4,-85.79,-24.05
233228.475385,1.994,-0.31,0.073,-24.2,-54.78,-9.86
233228.484890,1.907,-0.278,0.129,-35.19,-27.04,1.68
233228.495186,1.763,-0.177,0.069,-37.14,-4.55,9.09
233228.509206,1.67,-0.041,0.03,-35.83,14.04,19.78
233228.516320,1.635,0.061,0.031,-27.38,27.04,32.87
233228.525985,1.625,0.112,0.011,-10.68,37.14,44.25
233228.535326,1.622,0.113,-0.014,6.9,48.43,53.22
233228.545851,1.677,0.054,0.014,22.46,61.62,60.0
233228.559138,1.737,-0.023,0.04,38.97,70.41,57.22
233228.565570,1.768,-0.122,0.065,53.74,77.49,48.83
233228.575388,1.8,-0.229,0.107,63.51,85.73,43.21
233228.585904,1.865,-0.304,0.157,61.83,91.92,37.97
233228.598880,1.916,-0.356,0.218,46.36,93.26,29.94
233228.604717,1.943,-0.401,0.218,19.71,89.42,19.96
233228.615518,1.942,-0.424,0.166,-13.34,84.41,7.05
233228.626434,1.93,-0.438,0.101,-46.85,78.83,-8.3
233228.638845,1.88,-0.405,0.02,-76.11,70.83,-29.15
233228.644497,1.782,-0.325,-0.033,-100.53,62.81,-54.05
233228.655065,1.638,-0.241,-0.071,-120.61,56.09,-79.65
233228.668234,1.485,-0.188,-0.084,-134.77,53.22,-106.36
233228.674334,1.294,-0.154,-0.065,-141.7,52.8,-137.03
233228.684944,1.088,-0.116,-0.013,-142.4,52.89,-172.06
233228.698953,0.848,-0.077,0.042,-135.62,52.83,-211.28
233228.704213,0.539,-0.032,0.051,-121.86,52.95,-253.46
233228.715350,0.142,0.05,0.048,-104.31,56.12,-296.24
233228.727005,-0.31,0.217,0.063,-79.47,62.87,-337.66
233228.739198,-0.823,0.443,0.054,-39.74,68.09,-376.02
233228.746463,-1.19,0.573,-0.033,12.97,65.25,-406.93
233228.756812,-1.317,0.508,-0.208,64.55,50.33,-430.4
233228.769296,-1.596,0.374,-0.382,98.3,28.84,-454.15
233228.775240,-2.076,0.376,-0.397,96.35,3.27,-483.72
233228.786686,-2.585,0.559,-0.229,42.85,-29.42,-507.8
233228.797099,-2.79,0.761,0.266,-75.72,-65.46,-510.15
233228.809278,-2.836,0.905,1.076,-261.24,-97.54,-485.21
233228.816868,-2.605,1.145,1.678,-483.6,-123.42,-426.95
233228.828332,-1.973,1.691,1.405,-565.57,-132.08,-330.67
233228.834965,-1.184,2.572,0.136,-354.69,-93.91,-201.21
233228.846209,-0.146,2.668,-0.39,-72.42,-69.19,-39.61
233228.856588,0.447,2.154,-0.203,163.79,-78.52,74.89
233228.869487,0.211,1.676,0.247,318.52,-69.52,123.11
233228.876370,-0.26,1.015,0.711,383.28,-44.53,134.04
233228.886841,-0.629,0.507,0.872,375.71,-19.5,128.57
233228.901137,-1.016,0.366,0.751,314.74,18.16,124.85
233228.905479,-1.405,0.33,0.52,229.41,61.53,127.93
233228.918803,-1.543,0.292,0.404,136.42,106.97,147.19
233228.929390,-1.291,0.358,0.387,46.63,139.41,184.64
233228.935534,-0.896,0.514,0.353,-25.76,152.23,219.89
233228.945590,-0.606,0.677,0.288,-60.73,152.35,242.23
233228.958951,-0.478,0.852,0.218,-60.34,137.82,253.52
233228.967693,-0.398,1.023,0.194,-45.2,113.32,259.53
233228.975484,-0.263,1.147,0.241,-30.27,83.68,261.42
233228.990086,-0.066,1.247,0.298,-14.31,53.77,256.81
233228.996319,0.116,1.205,0.349,4.27,25.88,246.44
233229.006775,0.322,0.998,0.333,23.16,3.05,232.28
233229.016165,0.478,0.803,0.26,31.53,-12.45,208.87
233229.030232,0.531,0.693,0.2,25.88,-23.74,181.77
233229.035199,0.556,0.695,0.196,14.59,-31.53,153.63
233229.046587,0.559,0.761,0.208,9.16,-38.64,125.77
233229.059531,0.576,0.8,0.171,11.93,-43.98,106.75
233229.066372,0.624,0.779,0.143,16.97,-43.61,98.7
233229.075208,0.685,0.686,0.133,21.88,-39.83,96.1
233229.085391,0.715,0.597,0.104,26.31,-33.78,92.68
233229.099127,0.699,0.564,0.077,27.19,-26.22,87.74
233229.105274,0.665,0.562,0.112,23.5,-20.72,80.32
233229.115136,0.632,0.559,0.193,18.46,-21.27,68.3
233229.125354,0.638,0.544,0.304,16.24,-25.94,54.26
233229.138657,0.737,0.538,0.336,22.52,-30.58,42.05
233229.144661,0.865,0.547,0.287,31.5,-32.14,35.52
233229.154729,0.936,0.531,0.217,36.99,-31.95,33.85
233229.165487,0.969,0.489,0.13,37.69,-30.92,30.82
233229.179949,0.971,0.513,-0.026,35.62,-27.59,24.96
233229.184717,0.936,0.58,-0.122,27.44,-22.37,21.82
233229.196359,0.938,0.603,-0.069,24.23,-19.44,18.8
233229.205391,0.979,0.606,-0.01,38.7,-21.0,13.09
233229.216691,1.032,0.56,0.056,53.41,-26.12,7.45
233229.230230,1.061,0.481,0.122,61.8,-32.99,-2.75
233229.235667,1.038,0.459,0.13,70.35,-38.82,-15.11
233229.246564,0.987,0.483,0.087,77.73,-42.05,-23.26
233229.255714,0.945,0.521,0.009,77.06,-40.01,-20.75
233229.269206,0.914,0.572,-0.091,70.8,-36.99,-18.52
233229.275729,0.913,0.576,-0.158,57.53,-33.97,-22.06
233229.284823,0.943,0.532,-0.103,42.15,-31.92,-31.4
233229.295380,0.987,0.484,-0.021,27.71,-29.91,-40.59
233229.308942,1.008,0.498,0.09,12.12,-27.56,-44.86
233229.314972,0.981,0.545,0.12,-1.62,-25.88,-45.66
233229.324799,0.936,0.616,0.11,-12.12,-24.23,-42.48
233229.335303,0.906,0.661,0.11,-20.75,-23.07,-36.81
233229.348622,0.892,0.704,0.085,-24.02,-22.86,-33.05
233229.354243,0.873,0.762,0.044,-24.9,-22.64,-30.06
233229.364932,0.868,0.79,0.036,-26.06,-23.04,-27.07
233229.375108,0.866,0.821,0.026,-24.72,-23.96,-26.4
233229.388624,0.851,0.859,0.019,-23.13,-24.96,-25.36
233229.394480,0.832,0.88,0.022,-21.97,-25.85,-23.29
233229.404824,0.806,0.866,0.046,-20.33,-26.58,-21.27
233229.416176,0.774,0.845,0.057,-16.51,-27.16,-20.05
233229.430109,0.747,0.837,0.071,-12.67,-26.58,-16.97
233229.434953,0.741,0.815,0.096,-7.78,-25.54,-11.78
233229.445010,0.744,0.788,0.101,-0.4,-24.38,-7.72
233229.456485,0.741,0.784,0.081,7.39,-22.37,-3.63
233229.465672,0.736,0.79,0.048,12.88,-19.75,1.46
233229.480066,0.733,0.785,0.006,14.34,-16.79,5.95
233229.486461,0.732,0.754,-0.015,10.07,-14.1,8.67
233229.495947,0.732,0.722,-0.021,2.23,-11.14,9.49
233229.505041,0.729,0.697,-0.016,-6.96,-8.18,8.97
233229.515800,0.717,0.681,-0.007,-16.27,-5.65,7.66
233229.529735,0.698,0.672,0.018,-25.06,-3.3,7.32
233229.535118,0.684,0.668,0.054,-31.31,-1.1,7.57
233229.544327,0.674,0.669,0.085,-32.96,1.01,7.97
233229.555086,0.666,0.689,0.087,-31.37,3.54,8.12
233229.565300,0.66,0.712,0.09,-29.15,6.29,8.36
233229.575690,0.664,0.719,0.101,-24.23,8.21,7.63
233229.589968,0.666,0.745,0.071,-16.45,9.34,6.1
233229.595900,0.658,0.768,0.036,-12.39,10.59,6.04
233229.605814,0.661,0.746,0.034,-10.47,11.29,5.68
233229.615559,0.669,0.708,0.026,-7.11,10.59,3.45
233229.625905,0.676,0.677,0.018,-5.77,8.97,1.46
233229.635574,0.683,0.657,0.027,-6.74,7.81,0.46
233229.649192,0.692,0.664,0.029,-7.45,7.32,-0.58
233229.655099,0.695,0.718,-0.003,-6.99,7.6,-0.4
233229.665933,0.691,0.779,-0.023,-8.7,8.48,1.07
233229.674558,0.688,0.803,-0.009,-9.09,8.55,1.16
233229.684932,0.682,0.798,-0.009,-5.22,7.6,-0.79
233229.695219,0.67,0.788,-0.016,-1.5,6.5,-3.14
233229.706071,0.657,0.782,-0.007,0.61,5.83,-4.58
233229.716311,0.643,0.791,-0.012,3.48,5.86,-4.46
233229.728876,0.631,0.799,-0.016,5.8,6.59,-2.17
233229.734609,0.629,0.783,-0.005,7.51,7.32,0.89
233229.744310,0.635,0.758,0.003,10.32,7.78,2.69
233229.755017,0.641,0.741,-0.008,12.85,8.61,4.3
233229.765559,0.638,0.735,-0.014,13.46,9.52,7.05
233229.775692,0.634,0.743,-0.025,13.58,11.02,10.38
233229.790495,0.633,0.751,-0.034,12.45,12.45,14.07
233229.796147,0.638,0.735,-0.029,9.86,12.97,16.33
233229.805147,0.64,0.717,-0.028,7.54,13.12,16.05
233229.818372,0.636,0.721,-0.037,3.72,13.28,15.41
233229.829078,0.633,0.729,-0.022,-1.86,13.76,15.41
233229.834862,0.634,0.731,-0.001,-5.16,13.58,15.38
233229.845305,0.631,0.732,0.004,-6.81,12.51,15.02
233229.857189,0.628,0.735,0.011,-8.58,11.38,15.05
233229.865717,0.624,0.735,0.028,-9.46,9.95,14.62
233229.879957,0.617,0.735,0.039,-8.76,8.24,13.34
233229.886218,0.608,0.738,0.042,-7.42,6.65,12.15
233229.895676,0.603,0.74,0.055,-5.98,4.91,10.99
233229.904770,0.594,0.747,0.06,-3.94,3.02,9.8
233229.915421,0.585,0.755,0.055,-2.47,1.56,9.25
233229.925856,0.579,0.757,0.053,-2.38,0.27,8.45
233229.936932,0.572,0.755,0.051,-2.69,-0.58,7.11
233229.950049,0.568,0.757,0.046,-2.84,-0.89,6.01
233229.954543,0.57,0.756,0.052,-2.69,-0.92,5.49
233229.964343,0.57,0.76,0.063,-1.95,-1.1,5.01
233229.974527,0.573,0.767,0.074,0.12,-1.25,4.88
233229.984919,0.574,0.777,0.084,2.59,-1.4,4.85
233229.995536,0.577,0.793,0.08,4.09,-1.43,4.79
233230.005882,0.58,0.794,0.096,4.09,-1.59,4.58
233230.015973,0.589,0.791,0.106,5.46,-1.77,3.75
233230.028925,0.603,0.787,0.106,6.87,-1.83,3.51
233230.035132,0.617,0.782,0.107,6.71,-1.59,3.42
233230.044583,0.63,0.782,0.103,6.78,-0.79,3.94
233230.054635,0.646,0.767,0.103,6.56,0.21,4.27
233230.065465,0.66,0.75,0.104,7.11,1.22,4.21
233230.075338,0.671,0.745,0.093,7.63,2.72,4.46
233230.088117,0.683,0.734,0.093,6.38,4.39,5.46
233230.098872,0.695,0.713,0.095,4.73,6.04,6.07
233230.106224,0.712,0.694,0.096,3.23,7.48,6.1
233230.114910,0.728,0.68,0.104,1.1,8.85,5.68
233230.125312,0.746,0.681,0.094,-0.89,10.1,5.43
233230.136496,0.752,0.683,0.087,-3.81,11.26,5.8
233230.145355,0.749,0.689,0.083,-7.39,12.18,5.83
233230.158916,0.744,0.711,0.068,-10.41,12.94,6.16
233230.167151,0.737,0.726,0.061,-14.68,13.43,7.29
233230.175392,0.725,0.728,0.067,-19.84,13.34,7.97
233230.186510,0.716,0.729,0.079,-24.38,12.67,8.67
233230.195756,0.708,0.731,0.089,-28.14,11.69,10.1
233230.210045,0.694,0.746,0.081,-30.52,10.96,12.21
233230.215461,0.679,0.772,0.075,-32.14,10.74,15.17
233230.226277,0.667,0.78,0.087,-33.02,10.04,18.31
233230.236850,0.661,0.775,0.094,-30.92,8.79,19.96
233230.249950,0.652,0.775,0.088,-27.86,7.42,20.66
233230.255501,0.64,0.785,0.077,-26.37,6.44,21.27
233230.266238,0.624,0.784,0.074,-26.64,5.95,21.85
233230.275352,0.605,0.766,0.071,-27.71,5.52,21.67
233230.285851,0.588,0.732,0.056,-30.82,5.46,20.51
233230.299148,0.58,0.71,0.059,-36.93,6.29,19.29
233230.305450,0.576,0.704,0.074,-44.16,6.47,19.07
233230.316441,0.578,0.709,0.097,-52.46,5.89,20.02
233230.325582,0.59,0.717,0.144,-60.09,5.28,22.0
233230.335900,0.617,0.722,0.198,-61.83,4.94,23.96
233230.349568,0.652,0.724,0.24,-56.64,4.49,26.67
233230.356395,0.698,0.726,0.264,-47.12,4.97,29.82
233230.366247,0.751,0.704,0.269,-34.33,5.89,33.23
233230.376786,0.798,0.665,0.248,-20.08,6.93,35.25
233230.389867,0.844,0.631,0.199,-6.93,8.51,36.01
233230.395766,0.916,0.572,0.164,2.47,9.61,36.41
233230.405772,0.988,0.518,0.172,7.02,9.31,35.25
233230.415892,1.076,0.514,0.264,10.68,10.74,34.94
233230.425808,1.162,0.48,0.388,15.9,8.58,36.26
233230.440192,1.201,0.404,0.471,24.72,2.35,35.28
233230.445918,1.18,0.342,0.438,38.24,-2.29,33.14
233230.457551,1.134,0.319,0.321,47.67,-3.69,32.81
233230.465935,1.125,0.29,0.256,48.49,-4.73,33.57
233230.475693,1.149,0.242,0.231,47.4,-5.92,33.3
233230.488752,1.186,0.202,0.24,46.17,-7.11,31.56
233230.494850,1.2,0.174,0.285,39.52,-11.26,26.58
233230.505028,1.18,0.151,0.31,28.29,-15.72,16.91
233230.515758,1.162,0.104,0.237,17.55,-17.94,5.1
233230.525660,1.153,-0.051,0.106,-2.99,-17.94,-9.34
233230.540451,1.12,-0.163,0.012,-34.97,-14.1,-30.61
233230.546516,1.058,-0.117,-0.047,-72.88,-6.81,-51.18
233230.555600,0.994,-0.039,-0.058,-117.5,-1.77,-66.9
233230.566014,0.933,0.0,0.017,-161.14,2.08,-79.93
233230.579503,0.872,0.092,0.176,-197.67,6.2,-90.43
233230.585493,0.819,0.314,0.32,-220.25,10.25,-96.65
233230.596497,0.779,0.554,0.453,-223.85,12.79,-99.15
233230.609907,0.738,0.736,0.505,-201.03,15.96,-104.1
233230.615896,0.711,0.792,0.405,-161.53,22.89,-110.14
233230.625824,0.704,0.626,0.123,-134.56,32.04,-116.67
233230.639973,0.681,0.372,-0.024,-141.03,46.82,-131.5
233230.645210,0.63,0.361,0.094,-167.06,62.17,-147.89
233230.655925,0.494,0.558,0.341,-197.45,67.9,-148.56
233230.668509,0.302,0.807,0.602,-216.13,68.91,-142.03
233230.676068,0.156,1.031,0.732,-213.84,71.72,-133.82
233230.686313,0.154,1.143,0.744,-195.35,76.05,-121.52
233230.699789,0.186,1.105,0.585,-169.68,81.39,-113.8
233230.705330,0.211,0.934,0.433,-157.9,89.79,-110.39
233230.715262,0.243,0.812,0.366,-160.95,99.61,-111.64
233230.729508,0.233,0.76,0.453,-168.8,107.49,-113.41
233230.735137,0.17,0.721,0.626,-170.54,110.23,-111.97
233230.747039,0.084,0.696,0.754,-165.68,108.34,-109.38
233230.759904,0.033,0.664,0.773,-158.76,105.93,-105.14
233230.766647,0.057,0.58,0.688,-155.37,104.89,-101.08
233230.776273,0.087,0.482,0.542,-158.42,107.94,-104.31
233230.789395,0.083,0.391,0.48,-169.8,112.95,-110.66
233230.797317,0.015,0.365,0.577,-186.65,115.18,-117.74
233230.806176,-0.082,0.422,0.773,-198.43,112.61,-122.96
233230.820666,-0.185,0.526,0.966,-199.13,107.36,-121.59
233230.827075,-0.265,0.619,1.084,-175.08,95.19,-97.54
233230.836548,-0.27,0.679,1.082,-157.14,92.38,-88.56
233230.850215,-0.21,0.703,0.997,-140.63,91.25,-84.02
233230.855589,-0.126,0.604,0.857,-136.05,89.82,-86.28
233230.865720,-0.075,0.42,0.757,-146.06,85.51,-92.41
233230.880168,-0.069,0.297,0.771,-160.62,77.0,-94.64
233230.885616,-0.164,0.349,1.029,-165.29,66.07,-90.12
233230.896381,-0.191,0.451,1.094,-153.84,54.2,-79.74
233230.906070,-0.192,0.513,1.07,-129.86,45.01,-69.49
233230.919594,-0.178,0.51,1.02,-103.76,39.03,-61.62
233230.925981,-0.175,0.498,0.972,-82.61,34.94,-56.0
233230.935287,-0.136,0.461,0.934,-65.16,32.72,-51.24
233230.950588,-0.085,0.378,0.916,-50.87,30.73,-49.17
233230.954673,-0.078,0.325,0.947,-40.38,26.22,-47.82
233230.965659,-0.125,0.373,1.019,-31.77,18.13,-42.6
233230.975619,-0.132,0.465,1.086,-17.52,9.58,-31.59
233230.987155,-0.121,0.493,1.113,5.43,2.01,-19.2
233231.000116,-0.119,0.443,1.082,28.26,-4.88,-7.93
233231.005440,-0.107,0.375,1.041,41.72,-10.01,1.07
233231.015339,-0.07,0.25,0.993,46.3,-12.85,8.03
233231.025979,-0.05,0.136,0.95,41.02,-14.25,10.22
233231.035952,-0.041,0.061,0.95,27.68,-15.23,10.5
233231.049845,-0.069,0.065,0.955,10.77,-17.12,9.8
233231.056533,-0.087,0.143,0.969,-2.96,-18.01,10.96
233231.065624,-0.09,0.229,0.978,-8.79,-16.88,12.88
233231.075799,-0.094,0.291,0.99,-8.33,-14.07,13.79
233231.089902,-0.078,0.301,0.989,-2.2,-10.16,13.95
233231.095504,-0.065,0.273,0.96,5.07,-6.59,12.36
233231.104462,-0.041,0.242,0.94,9.55,-2.84,10.04
233231.115320,-0.02,0.226,0.955,11.78,0.55,7.78
233231.125655,-0.008,0.191,0.99,13.43,3.08,6.26
233231.136865,-0.005,0.155,0.996,12.63,4.39,3.69
233231.150119,-0.007,0.157,0.972,7.72,4.94,0.12
233231.155120,-0.007,0.198,0.964,2.38,6.16,-3.08
233231.164604,-0.025,0.257,0.975,0.67,7.05,-4.55
233231.175358,-0.021,0.28,0.991,3.81,8.12,-3.51
233231.185362,-0.023,0.26,0.99,8.33,8.82,-2.04
233231.195281,-0.023,0.235,0.973,9.64,9.13,-1.22
233231.205324,-0.001,0.215,0.946,9.25,9.34,-1.59
233231.216875,-0.002,0.216,0.938,7.97,8.21,-2.26
233231.229139,-0.007,0.214,0.945,6.74,6.74,-2.62
233231.234625,-0.016,0.216,0.952,4.79,5.25,-3.14
233231.244435,-0.029,0.233,0.962,2.69,4.27,-3.17
233231.256151,-0.026,0.245,0.97,2.53,4.39,-2.44
233231.265741,-0.027,0.245,0.954,3.27,4.91,-1.95
233231.275726,-0.023,0.237,0.925,3.45,6.56,-2.38
233231.285835,-0.017,0.237,0.926,4.09,8.48,-2.59
233231.299964,-0.015,0.227,0.918,5.65,9.95,-2.78
233231.305837,-0.011,0.208,0.913,5.37,10.99,-3.88
233231.315541,-0.013,0.217,0.932,3.78,11.2,-5.43
233231.324854,-0.017,0.225,0.945,3.08,10.32,-6.53
233231.335205,-0.018,0.205,0.928,1.4,9.74,-8.06
233231.345643,-0.019,0.206,0.93,-2.53,9.8,-10.16
233231.358848,-0.023,0.231,0.965,-5.16,10.07,-11.11
233231.365568,-0.03,0.25,0.995,-4.73,10.04,-10.56
233231.374730,-0.036,0.26,0.989,-3.91,9.61,-9.67
233231.384837,-0.026,0.27,0.976,-3.17,9.95,-9.34
233231.395970,-0.022,0.278,0.984,-1.04,10.68,-9.34
233231.405682,-0.021,0.281,0.995,2.72,10.77,-8.67
233231.420005,-0.018,0.271,0.98,6.5,10.25,-7.97
233231.427157,-0.013,0.243,0.96,7.63,9.61,-8.88
233231.434580,-0.023,0.254,0.969,5.4,8.64,-10.9
233231.445444,-0.038,0.29,0.994,3.42,7.14,-11.08
233231.455038,-0.042,0.307,1.007,3.88,6.07,-9.58
233231.465679,-0.05,0.319,1.009,4.76,5.13,-7.42
233231.477990,-0.046,0.328,1.009,4.97,4.43,-4.85
233231.490149,-0.04,0.32,1.004,5.46,3.69,-3.11
233231.496151,-0.043,0.304,0.991,5.31,3.08,-1.86
233231.504251,-0.029,0.278,0.967,4.18,2.72,-0.7
233231.514601,-0.022,0.266,0.959,1.59,2.23,-0.64
233231.524838,-0.036,0.286,0.983,-1.71,0.92,-0.79
233231.535721,-0.048,0.312,0.996,-3.81,-0.12,-0.64
233231.545952,-0.051,0.318,0.996,-4.18,-0.18,-0.4
233231.557225,-0.054,0.3,0.994,-4.43,0.58,-0.73
233231.571034,-0.054,0.292,1.0,-5.92,1.4,-1.4
233231.576014,-0.043,0.288,1.004,-7.35,1.83,-1.8
233231.584417,-0.031,0.271,0.997,-8.42,2.29,-2.08
233231.596413,-0.018,0.264,0.992,-9.61,2.5,-2.66
233231.605500,-0.019,0.279,1.008,-10.77,2.04,-3.27
233231.615720,-0.026,0.298,1.019,-10.99,0.92,-3.51
233231.627184,-0.03,0.306,1.012,-9.74,0.37,-3.45
233231.640306,-0.035,0.311,1.007,-7.81,0.06,-3.02
233231.645944,-0.041,0.314,1.009,-5.28,-0.21,-2.5
233231.654707,-0.04,0.305,0.997,-2.04,0.06,-2.17
233231.665336,-0.038,0.273,0.968,-0.09,0.55,-2.69
233231.675016,-0.029,0.245,0.947,-0.31,1.4,-4.3
233231.685607,-0.021,0.229,0.942,-1.5,2.2,-6.29
233231.697735,-0.024,0.228,0.949,-4.55,2.69,-7.97
233231.710133,-0.031,0.253,0.96,-9.22,2.14,-8.15
233231.716687,-0.034,0.277,0.966,-12.45,1.43,-7.42
233231.724526,-0.037,0.299,0.98,-13.64,0.7,-6.29
233231.735634,-0.037,0.318,0.987,-13.21,-0.34,-4.12
233231.746583,-0.036,0.318,0.983,-10.71,-1.1,-1.89
233231.757035,-0.035,0.302,0.965,-7.42,-1.22,-0.15
233231.766757,-0.023,0.28,0.939,-5.07,-1.07,0.85
233231.780337,-0.028,0.265,0.942,-4.64,-1.62,0.98
233231.786098,-0.039,0.256,0.951,-5.98,-2.87,1.04
233231.795185,-0.044,0.262,0.95,-8.0,-3.91,1.4
233231.805862,-0.048,0.279,0.955,-9.55,-4.64,2.23
233231.815415,-0.049,0.279,0.954,-9.19,-4.76,3.27
233231.826667,-0.052,0.278,0.953,-8.24,-4.49,4.76
233231.835792,-0.049,0.279,0.96,-6.96,-4.09,6.07
233231.849406,-0.04,0.265,0.948,-4.64,-3.02,6.41
233231.855109,-0.03,0.252,0.944,-2.2,-1.62,5.77
233231.864396,-0.032,0.252,0.958,-0.52,-0.85,5.07
233231.875435,-0.037,0.27,0.967,1.19,-0.52,4.7
233231.885617,-0.039,0.286,0.975,3.57,-0.03,4.82
233231.896541,-0.035,0.281,0.976,7.08,0.46,5.16
233231.906137,-0.036,0.254,0.967,9.89,0.73,4.97
233231.919751,-0.034,0.235,0.966,10.13,1.07,4.18
233231.924603,-0.034,0.232,0.966,9.13,1.28,3.3
233231.935346,-0.039,0.233,0.96,8.06,1.74,2.72
233231.944623,-0.034,0.232,0.954,6.71,2.38,2.44
233231.955038,-0.023,0.23,0.957,5.16,2.78,2.14
233231.965218,-0.024,0.239,0.969,3.11,2.59,1.59
233231.976867,-0.027,0.257,0.982,1.46,2.23,1.62
233231.985762,-0.025,0.264,0.988,1.19,1.77,2.01
233231.999968,-0.028,0.264,0.984,1.1,1.46,2.29
233232.005057,-0.025,0.277,0.99,1.28,1.46,2.66
233232.015094,-0.023,0.271,0.985,2.5,1.34,3.69
233232.024922,-0.02,0.262,0.982,2.59,1.16,3.81
233232.035241,-0.02,0.272,0.986,2.59,0.79,3.81
233232.045816,-0.023,0.272,0.982,3.36,0.31,3.91
233232.056430,-0.02,0.254,0.968,3.54,0.06,3.36
233232.069596,-0.02,0.248,0.964,2.44,-0.15,2.14
233232.074514,-0.029,0.262,0.983,0.89,-0.67,1.62
233232.084221,-0.033,0.284,0.994,0.37,-1.4,2.41
233232.094943,-0.032,0.293,0.995,0.79,-1.92,3.33
233232.105134,-0.033,0.297,0.994,1.98,-2.04,4.18
233232.115303,-0.031,0.294,0.99,3.51,-2.29,5.28
233232.125461,-0.025,0.283,0.985,4.7,-3.02,6.23
233232.137087,-0.024,0.271,0.977,5.04,-3.78,6.81
233232.149149,-0.019,0.254,0.97,4.58,-4.43,7.32
233232.155920,-0.019,0.239,0.967,2.93,-4.73,7.2
233232.166123,-0.025,0.239,0.968,0.52,-4.88,6.59
233232.176244,-0.03,0.249,0.966,-1.65,-4.7,5.92
233232.186470,-0.031,0.258,0.965,-2.75,-4.06,5.86
233232.195672,-0.029,0.255,0.968,-2.9,-3.72,5.86
233232.205541,-0.027,0.249,0.972,-3.23,-3.63,5.58
233232.218966,-0.033,0.252,0.977,-4.0,-3.57,5.43
233232.224502,-0.037,0.262,0.976,-4.52,-3.78,5.55
233232.234395,-0.036,0.266,0.972,-4.12,-4.09,6.16
233232.245671,-0.039,0.269,0.965,-3.66,-4.0,6.38
233232.254963,-0.038,0.283,0.966,-3.14,-3.66,6.35
233232.265524,-0.036,0.287,0.974,-1.46,-3.39,6.62
233232.276317,-0.04,0.285,0.976,0.37,-3.6,6.84
233232.286698,-0.028,0.271,0.969,2.14,-3.69,7.23
233232.299970,-0.013,0.242,0.965,2.69,-3.42,6.9
233232.304816,-0.008,0.227,0.966,0.85,-3.78,5.8
233232.314488,-0.007,0.235,0.968,-1.92,-4.24,5.43
233232.324840,-0.014,0.25,0.978,-4.33,-4.49,5.83
233232.335458,-0.02,0.267,0.989,-5.37,-4.82,6.71
233232.345275,-0.017,0.269,0.986,-4.94,-5.01,8.18
233232.355748,-0.014,0.266,0.988,-4.03,-4.88,8.85
233232.369569,-0.013,0.264,0.988,-3.17,-5.19,9.19
233232.374960,-0.017,0.269,0.988,-2.35,-5.65,9.19
233232.385206,-0.012,0.274,0.983,-1.04,-6.07,9.46
233232.394760,-0.003,0.265,0.981,1.07,-6.2,9.58
233232.405345,-0.014,0.274,0.989,1.22,-8.51,10.44
233232.415720,-0.01,0.283,0.997,1.46,-9.43,11.69
233232.426126,-0.017,0.273,1.002,0.34,-10.65,13.43
233232.439468,-0.027,0.273,1.003,-1.19,-11.96,15.81
233232.445717,-0.023,0.286,1.006,-1.86,-13.89,18.19
233232.457378,-0.034,0.307,1.014,-1.5,-16.85,21.64
233232.466272,-0.052,0.341,0.991,0.4,-19.99,25.57
233232.478742,-0.05,0.307,0.964,2.84,-22.31,28.84
233232.484708,-0.042,0.259,0.95,3.6,-24.23,31.07
233232.494773,-0.022,0.226,0.952,1.95,-25.94,33.11
233232.505044,-0.022,0.218,0.96,-1.86,-28.02,35.0
233232.517150,-0.032,0.232,0.969,-5.98,-29.82,36.68
233232.528867,-0.035,0.255,0.97,-8.64,-31.25,38.48
233232.534896,-0.028,0.276,0.976,-8.15,-32.78,40.19
233232.544936,-0.031,0.3,0.968,-5.55,-35.37,42.33
233232.555351,-0.0,0.3,0.959,-0.92,-37.42,44.68
233232.565968,-0.004,0.272,0.963,3.94,-39.09,46.3
233232.579902,0.003,0.234,0.949,5.77,-40.1,47.24
233232.585776,0.03,0.194,0.956,3.05,-39.89,47.24
233232.595956,0.014,0.19,0.976,-3.11,-40.13,46.69
233232.605353,0.007,0.201,0.978,-9.34,-41.02,47.06
233232.619333,0.017,0.219,0.977,-12.36,-42.48,47.18
233232.626140,0.009,0.263,0.978,-12.27,-45.26,47.61
233232.636179,0.025,0.295,0.946,-7.29,-48.25,48.65
233232.645435,0.078,0.304,0.923,1.5,-50.26,48.8
233232.656831,0.093,0.309,0.921,10.22,-51.82,48.86
233232.669361,0.094,0.287,0.933,16.05,-51.58,49.62
233232.675704,0.089,0.246,0.968,17.94,-50.14,49.68
233232.685865,0.073,0.214,0.982,15.69,-49.9,49.26
233232.696067,0.067,0.19,0.978,11.05,-50.36,48.43
233232.709022,0.063,0.192,0.969,5.65,-51.97,47.09
233232.716279,0.083,0.22,0.953,2.59,-54.99,46.27
233232.725262,0.116,0.249,0.897,4.0,-58.44,44.92
233232.735454,0.18,0.286,0.857,7.69,-59.45,43.73
233232.749505,0.232,0.3,0.891,11.17,-58.11,45.14
233232.754764,0.217,0.285,0.934,11.84,-56.31,48.13
233232.765914,0.217,0.245,0.971,9.67,-54.29,50.54
233232.777169,0.233,0.212,0.985,6.44,-52.71,51.15
233232.785962,0.233,0.189,0.991,3.66,-52.55,50.48
233232.799769,0.219,0.181,0.984,1.13,-53.96,48.28
233232.806740,0.219,0.202,0.941,-2.04,-56.67,44.92
233232.817088,0.255,0.25,0.872,-4.49,-58.78,41.99
233232.825572,0.327,0.299,0.874,-5.25,-58.2,42.09
233232.835911,0.332,0.323,0.909,-3.78,-57.16,45.23
233232.850964,0.329,0.298,0.929,-1.04,-55.18,49.53
233232.855856,0.343,0.26,0.958,0.55,-52.8,52.34
233232.865758,0.332,0.227,0.975,-0.18,-51.52,53.5
233232.875513,0.339,0.183,0.962,-2.01,-51.09,52.49
233232.888990,0.353,0.169,0.941,-5.55,-51.39,49.2
233232.894720,0.39,0.18,0.918,-9.52,-52.4,46.24
233232.904893,0.456,0.203,0.895,-11.11,-52.89,44.68
233232.915795,0.487,0.226,0.888,-11.66,-53.07,45.56
233232.926457,0.485,0.235,0.91,-11.47,-52.19,48.19
233232.939767,0.457,0.227,0.928,-11.38,-51.03,51.03
233232.946243,0.427,0.231,0.925,-14.01,-50.63,52.98
233232.955388,0.42,0.242,0.924,-15.78,-49.87,53.25
233232.966325,0.417,0.235,0.909,-13.18,-49.23,50.42
233232.980523,0.439,0.184,0.872,-7.75,-48.71,47.09
233232.985972,0.493,0.136,0.827,-3.51,-48.19,43.49
233232.996342,0.548,0.113,0.805,-2.11,-47.85,41.57
233233.005904,0.565,0.106,0.801,-3.08,-47.58,41.96
233233.018941,0.559,0.103,0.806,-5.37,-46.36,43.12
233233.026278,0.54,0.115,0.823,-8.15,-44.98,44.13
233233.034851,0.527,0.115,0.821,-8.61,-43.46,43.82
233233.045767,0.516,0.109,0.82,-7.23,-41.75,41.6
233233.055896,0.487,0.116,0.822,-6.1,-40.89,38.3
233233.069263,0.49,0.12,0.801,-3.88,-39.92,35.0
233233.075830,0.539,0.112,0.768,1.04,-37.84,31.1
233233.085211,0.596,0.109,0.756,5.65,-36.01,29.42
233233.096165,0.614,0.105,0.78,8.36,-34.97,30.85
233233.105988,0.588,0.096,0.816,8.36,-34.79,33.94
233233.120206,0.559,0.097,0.841,4.67,-35.28,36.16
233233.126353,0.546,0.109,0.846,0.82,-35.55,35.8
233233.135585,0.528,0.131,0.844,0.27,-35.58,33.6
233233.146683,0.513,0.128,0.831,1.19,-35.74,31.65
233233.156190,0.548,0.1,0.807,5.34,-35.37,28.57
233233.170028,0.585,0.095,0.788,8.67,-35.65,26.28
233233.175587,0.625,0.085,0.772,9.98,-36.38,26.61
233233.188935,0.651,0.057,0.766,11.35,-36.56,27.44
233233.195915,0.646,0.029,0.747,10.86,-36.47,28.2
233233.209152,0.647,0.023,0.763,7.69,-35.49,27.62
233233.216022,0.607,0.065,0.805,1.46,-36.23,26.7
233233.225085,0.567,0.115,0.822,-4.15,-38.0,25.61
233233.235531,0.557,0.158,0.809,-5.68,-39.22,22.89
233233.245965,0.576,0.172,0.781,-1.22,-38.97,19.9
233233.259122,0.602,0.165,0.756,7.63,-37.81,17.73
233233.266012,0.614,0.159,0.744,13.89,-37.32,19.2
233233.275144,0.641,0.133,0.735,17.58,-36.65,23.41
233233.286816,0.654,0.08,0.701,20.69,-35.19,26.25
233233.299398,0.662,0.017,0.685,22.28,-32.56,25.88
233233.306188,0.656,-0.023,0.71,20.02,-30.46,23.96
233233.315570,0.632,-0.025,0.737,13.0,-31.04,21.52
233233.325724,0.624,-0.005,0.741,4.52,-32.81,17.98
233233.340883,0.626,0.037,0.724,-2.9,-34.18,13.49
233233.345140,0.633,0.099,0.73,-6.44,-34.82,10.59
233233.355062,0.622,0.153,0.726,-6.07,-35.4,9.77
233233.365800,0.653,0.179,0.727,-0.58,-34.52,11.02
233233.375642,0.676,0.192,0.725,7.57,-33.36,14.04
233233.391276,0.681,0.171,0.7,16.75,-31.98,16.94
233233.395772,0.7,0.112,0.692,25.67,-29.08,17.49
233233.406148,0.693,0.078,0.702,28.99,-27.28,17.06
233233.415943,0.689,0.058,0.705,27.62,-26.52,16.36
233233.430237,0.683,0.051,0.708,22.86,-26.58,14.34
233233.435915,0.668,0.074,0.69,15.78,-27.31,12.67
233233.445033,0.672,0.097,0.66,8.91,-27.04,12.05
233233.455541,0.688,0.117,0.635,5.92,-25.48,12.45
233233.469607,0.692,0.123,0.604,7.32,-23.04,13.64
233233.475072,0.684,0.127,0.607,11.11,-19.81,15.32
233233.485497,0.677,0.131,0.604,12.7,-18.4,17.24
233233.496417,0.659,0.115,0.652,14.59,-14.68,16.48
233233.507010,0.68,0.064,0.698,17.12,-8.27,14.8
233233.519759,0.712,0.007,0.692,17.91,-7.11,10.62
233233.526025,0.738,0.004,0.664,16.21,-6.71,5.04
233233.534974,0.774,0.008,0.637,15.08,-5.68,0.49
233233.546813,0.789,0.022,0.649,14.92,-5.55,-2.08
233233.556250,0.771,0.064,0.659,15.14,-6.1,-3.27
233233.569379,0.777,0.104,0.678,19.59,-5.31,-4.94
233233.574942,0.786,0.132,0.69,27.44,-4.27,-7.84
233233.586705,0.792,0.149,0.712,34.85,-3.36,-10.71
233233.595125,0.779,0.194,0.744,39.7,-3.23,-13.37
233233.605755,0.804,0.196,0.737,46.05,-3.27,-14.44
233233.618925,0.846,0.171,0.695,53.8,-2.47,-17.03
233233.626873,0.863,0.176,0.673,58.87,-2.04,-18.95
233233.635260,0.875,0.161,0.641,64.79,-1.95,-17.27
233233.645866,0.876,0.126,0.589,66.93,-1.37,-15.78
233233.657009,0.872,0.156,0.602,68.06,1.86,-22.13
233233.669295,0.876,0.132,0.597,76.57,4.61,-26.89
233233.675741,0.85,-0.0,0.573,84.29,6.23,-22.4
233233.690000,0.825,-0.059,0.589,78.49,8.48,-24.84
233233.695613,0.845,-0.054,0.626,72.33,9.06,-30.58
233233.706116,0.833,-0.063,0.619,69.34,9.98,-33.54
233233.719203,0.798,-0.078,0.587,61.56,10.13,-35.16
233233.725333,0.772,-0.046,0.601,50.42,10.41,-35.92
233233.735416,0.77,-0.029,0.612,45.56,11.87,-34.61
233233.746111,0.776,-0.045,0.626,45.14,14.28,-34.97
233233.759346,0.746,-0.081,0.625,42.27,15.9,-37.14
233233.767956,0.705,-0.07,0.635,32.78,17.3,-38.36
233233.775599,0.707,-0.072,0.635,22.83,19.5,-39.74
233233.786429,0.727,-0.133,0.622,8.79,21.06,-42.51
233233.800248,0.723,-0.162,0.636,-16.05,19.93,-42.6
233233.806462,0.709,-0.016,0.706,-39.77,19.75,-45.5
233233.816364,0.705,0.1,0.723,-45.93,22.28,-53.01
233233.826753,0.721,0.171,0.71,-44.77,25.12,-56.95
233233.840133,0.698,0.249,0.722,-43.0,26.37,-59.21
233233.846827,0.653,0.333,0.724,-42.42,26.67,-59.36
233233.856575,0.648,0.363,0.708,-39.19,27.13,-55.39
233233.867134,0.716,0.32,0.683,-37.51,26.4,-54.81
233233.879242,0.633,0.337,0.688,-42.88,24.87,-57.25
233233.885831,0.563,0.34,0.695,-45.05,25.7,-55.45
233233.895399,0.563,0.324,0.651,-41.14,29.39,-54.38
233233.905808,0.585,0.313,0.628,-34.52,33.45,-53.07
233233.919047,0.581,0.327,0.609,-28.84,37.35,-52.13
233233.925182,0.625,0.353,0.62,-25.09,41.02,-49.78
233233.936197,0.631,0.38,0.64,-21.33,42.42,-48.68
233233.945967,0.621,0.383,0.651,-18.46,44.19,-45.23
233233.959418,0.651,0.366,0.635,-15.69,45.87,-41.99
233233.966515,0.644,0.345,0.645,-13.7,48.37,-40.38
233233.975471,0.645,0.32,0.669,-10.9,51.33,-38.39
233233.986324,0.627,0.318,0.699,-9.13,54.26,-36.23
233234.000467,0.652,0.337,0.737,-8.18,53.5,-34.82
233234.005704,0.661,0.367,0.751,-6.26,52.16,-31.86
233234.015637,0.68,0.388,0.756,-4.0,49.53,-27.71
233234.025423,0.711,0.406,0.77,-0.03,46.3,-25.48
233234.035863,0.771,0.381,0.742,7.32,42.94,-22.49
233234.049492,0.811,0.339,0.722,13.4,39.34,-19.71
233234.055741,0.882,0.305,0.748,16.36,34.97,-16.88
233234.065855,0.873,0.285,0.746,15.81,27.74,-13.95
233234.076167,0.846,0.275,0.717,12.09,20.72,-10.9
233234.090013,0.788,0.325,0.726,8.0,15.14,-8.21
233234.095393,0.731,0.346,0.723,6.1,10.53,-5.07
233234.104630,0.705,0.377,0.746,3.63,7.08,-4.79
233234.115903,0.648,0.41,0.769,5.01,3.17,-2.81
233234.125197,0.611,0.391,0.752,8.12,0.46,0.64
233234.135594,0.575,0.405,0.748,10.01,-1.53,3.48
233234.149182,0.559,0.387,0.755,12.42,-3.02,6.84
233234.155491,0.542,0.375,0.775,14.56,-4.33,8.79
233234.164774,0.546,0.317,0.771,14.8,-5.52,10.13
233234.174927,0.532,0.323,0.786,9.13,-6.74,8.36
233234.186565,0.509,0.341,0.799,6.01,-7.17,7.05
233234.195732,0.513,0.336,0.822,5.8,-6.84,6.81
233234.205936,0.496,0.358,0.833,1.28,-7.35,5.01
233234.219937,0.487,0.38,0.832,1.89,-6.53,3.97
233234.226217,0.496,0.344,0.803,6.38,-4.88,3.42
233234.234612,0.488,0.34,0.771,6.93,-3.14,1.65
233234.245008,0.489,0.351,0.761,9.67,-0.34,0.46
233234.259557,0.488,0.333,0.768,13.49,1.65,0.18
233234.266129,0.483,0.336,0.799,12.94,2.11,-1.13
233234.276024,0.476,0.349,0.82,11.38,2.26,-1.34
233234.289237,0.472,0.348,0.819,11.02,2.5,-0.98
233234.308183,0.477,0.342,0.817,8.73,2.59,-0.79
233234.314957,0.477,0.348,0.794,3.17,2.29,-1.22
233234.317362,0.49,0.346,0.767,-0.82,2.84,-1.74
233234.326018,0.493,0.357,0.753,-3.2,3.66,-1.71
233234.335958,0.494,0.372,0.744,-3.27,4.73,-1.62
233234.348277,0.496,0.381,0.75,-1.74,6.2,-1.77
233234.359196,0.502,0.397,0.747,-0.46,7.51,-2.29
233234.364986,0.512,0.397,0.75,1.65,8.55,-2.75
233234.374768,0.519,0.387,0.752,3.2,8.82,-3.11
233234.384941,0.52,0.38,0.754,4.82,9.0,-3.39
233234.395097,0.519,0.375,0.765,5.58,9.09,-2.96
233234.405505,0.531,0.376,0.779,4.36,8.55,-2.69
233234.416174,0.531,0.374,0.787,3.39,7.63,-2.75
233234.430578,0.526,0.359,0.78,2.38,6.65,-2.78
233234.434658,0.524,0.354,0.786,1.74,6.07,-2.93
233234.444586,0.525,0.364,0.797,2.9,5.31,-3.39
233234.456222,0.518,0.351,0.799,4.3,4.39,-3.91
233234.465783,0.513,0.352,0.792,4.21,3.85,-4.64
233234.475537,0.513,0.362,0.795,4.24,3.51,-4.91
233234.485623,0.512,0.366,0.794,4.03,2.66,-4.7
233234.496078,0.509,0.369,0.777,3.3,2.14,-4.43
233234.509415,0.513,0.375,0.771,4.0,2.38,-3.94
233234.516690,0.508,0.382,0.779,5.16,2.2,-2.5
233234.526295,0.506,0.386,0.783,5.58,1.95,-1.1
233234.534963,0.502,0.386,0.79,4.85,2.04,-0.46
233234.545189,0.499,0.396,0.787,2.38,1.8,-0.18
233234.555882,0.491,0.397,0.778,1.43,1.89,-0.15
233234.565982,0.486,0.397,0.768,1.98,2.47,-0.37
233234.580315,0.487,0.382,0.753,2.04,3.2,-0.34
233234.585076,0.486,0.382,0.769,1.37,4.03,-1.1
233234.594343,0.49,0.385,0.782,1.8,4.46,-1.8
233234.604844,0.49,0.378,0.783,2.62,4.79,-2.78
233234.616939,0.49,0.379,0.784,2.84,5.1,-3.42
233234.625528,0.49,0.376,0.784,2.69,5.22,-3.6
233234.635860,0.489,0.371,0.788,2.53,5.13,-4.06
233234.645744,0.488,0.369,0.798,1.59,4.61,-3.97
233234.661094,0.479,0.37,0.795,-0.34,3.94,-3.69
233234.666967,0.5,0.372,0.789,-1.62,3.48,-3.27
233234.674441,0.494,0.377,0.784,-2.04,2.59,-3.72
233234.686018,0.491,0.381,0.783,-2.87,2.04,-3.27
233234.695088,0.484,0.398,0.782,-2.41,1.71,-2.72
233234.705803,0.512,0.385,0.762,-1.04,1.37,-1.62
233234.716087,0.507,0.39,0.757,-1.37,0.7,-2.47
233234.730779,0.498,0.393,0.763,-0.09,0.76,-2.5
233234.735783,0.506,0.386,0.764,1.16,0.89,-1.95
233234.744577,0.499,0.392,0.773,1.16,0.89,-1.98
233234.754694,0.5,0.396,0.771,1.01,0.61,-1.77
233234.765367,0.501,0.397,0.766,1.37,0.4,-1.74
233234.775516,0.499,0.392,0.769,1.56,0.27,-1.37
233234.786131,0.499,0.391,0.771,0.98,-0.03,-0.76
233234.796502,0.5,0.388,0.771,0.4,-0.18,-0.61
233234.810330,0.496,0.387,0.772,0.09,-0.15,-0.73
233234.815612,0.497,0.387,0.774,0.31,-0.27,-0.7
233234.824794,0.495,0.385,0.78,1.04,0.0,-0.73
233234.834830,0.493,0.384,0.781,1.28,0.34,-0.92
233234.845190,0.491,0.381,0.788,1.89,0.64,-1.13
233234.855401,0.49,0.382,0.789,2.38,0.85,-1.46
233234.865984,0.49,0.376,0.787,2.84,1.16,-1.83
233234.879955,0.492,0.376,0.794,3.11,1.34,-2.04
233234.885395,0.493,0.378,0.795,2.78,1.16,-2.04
233234.894610,0.493,0.376,0.79,2.62,1.34,-2.17
233234.905388,0.493,0.38,0.792,2.44,1.37,-1.92
233234.916292,0.492,0.383,0.793,1.46,1.25,-1.37
233234.926430,0.49,0.386,0.791,-0.15,0.79,-0.85
233234.937021,0.482,0.384,0.784,-1.89,0.61,-0.09
233234.945968,0.489,0.389,0.777,-3.05,0.73,0.89
233234.959486,0.496,0.382,0.771,-2.2,0.7,1.25
233234.966822,0.483,0.388,0.773,-1.65,1.01,1.37
233234.975140,0.493,0.388,0.771,-1.13,1.56,1.59
233234.984715,0.495,0.39,0.771,-0.49,1.62,1.46
233234.996068,0.492,0.392,0.776,0.34,1.65,1.65
233235.005484,0.494,0.391,0.776,0.58,1.4,1.74
233235.016111,0.494,0.387,0.772,1.31,1.43,1.71
233235.025916,0.485,0.385,0.773,2.04,1.25,1.77
233235.039339,0.486,0.386,0.778,2.2,1.04,1.8
233235.044910,0.49,0.387,0.779,2.38,0.98,1.5
233235.054933,0.487,0.39,0.78,2.29,0.79,1.22
233235.065520,0.492,0.397,0.783,2.01,0.43,1.16
233235.075433,0.489,0.389,0.782,1.83,0.18,0.98
233235.085904,0.488,0.387,0.778,1.46,0.24,0.85
233235.095748,0.49,0.386,0.778,0.7,0.12,1.07
233235.109449,0.489,0.386,0.777,0.49,0.0,1.01
233235.115868,0.488,0.384,0.778,0.95,0.12,1.1
233235.124407,0.488,0.39,0.776,1.22,0.18,1.25
233235.134706,0.485,0.394,0.779,2.11,0.43,1.31
233235.145213,0.486,0.396,0.784,2.04,0.52,1.56
233235.155472,0.49,0.395,0.79,1.53,0.27,1.71
233235.165976,0.488,0.393,0.793,0.24,-0.24,1.5
233235.176189,0.488,0.394,0.788,-0.73,-0.73,1.04
233235.189697,0.485,0.387,0.776,-0.58,-0.85,0.67
233235.195751,0.485,0.38,0.772,-0.06,-0.64,-0.09
233235.204749,0.48,0.379,0.779,1.07,-0.4,-0.7
233235.215205,0.478,0.378,0.779,1.62,-0.06,-1.22
233235.225284,0.478,0.373,0.777,1.83,0.27,-1.77
233235.236404,0.472,0.367,0.779,0.37,0.98,-1.68
233235.246067,0.498,0.381,0.793,0.21,1.01,-1.92
233235.259060,0.478,0.373,0.781,0.7,0.21,-2.17
233235.266964,0.491,0.379,0.778,-0.73,0.31,-1.86
233235.274643,0.497,0.393,0.78,-0.4,0.15,-1.92
233235.284877,0.486,0.392,0.779,0.12,-0.12,-1.98
233235.295048,0.472,0.396,0.774,0.49,0.21,-1.95
233235.305392,0.497,0.396,0.781,0.31,1.01,-0.89
233235.316016,0.498,0.403,0.776,2.26,0.85,-1.74
233235.326285,0.481,0.39,0.776,3.69,0.92,-1.77
233235.340473,0.48,0.391,0.776,3.23,1.31,-1.37
233235.345573,0.492,0.392,0.779,2.56,1.74,-0.7
233235.356275,0.498,0.395,0.788,2.84,1.37,-0.67
233235.365941,0.492,0.396,0.783,2.14,0.58,-0.7
233235.377371,0.489,0.399,0.779,1.01,0.43,-0.82
233235.386229,0.49,0.402,0.781,0.37,0.21,-0.31
233235.395910,0.486,0.401,0.776,-0.43,-0.24,0.15
233235.410701,0.483,0.394,0.774,-0.43,-0.24,0.4
233235.416116,0.482,0.392,0.77,0.43,0.0,0.43
233235.424457,0.479,0.389,0.771,2.11,0.55,0.52
233235.436373,0.48,0.388,0.777,3.14,0.92,0.34
233235.445822,0.478,0.389,0.767,3.11,1.19,-0.15
233235.455489,0.464,0.381,0.749,3.42,1.95,-0.18
233235.465873,0.49,0.398,0.772,3.14,2.78,0.43
233235.475958,0.485,0.402,0.777,6.04,2.26,0.18
233235.489158,0.476,0.389,0.774,6.04,2.23,0.18
233235.494703,0.493,0.4,0.777,4.58,2.14,-0.34
233235.505226,0.486,0.4,0.774,4.73,1.65,-0.67
233235.515128,0.478,0.392,0.777,3.11,1.37,-0.24
233235.525063,0.496,0.41,0.788,0.55,0.85,-0.09
233235.537276,0.496,0.415,0.79,0.24,0.03,-0.18
233235.546414,0.489,0.408,0.778,0.06,-0.46,-0.43
233235.560317,0.492,0.409,0.775,-0.37,-0.61,-0.58
233235.565468,0.493,0.41,0.777,0.03,-1.31,0.06
233235.574465,0.49,0.404,0.778,0.82,-1.31,-0.18
233235.585360,0.49,0.399,0.772,1.89,-1.1,-0.52
233235.596562,0.488,0.397,0.774,2.04,-0.98,-0.58
233235.606929,0.483,0.397,0.78,1.13,-1.13,-1.04
233235.615855,0.482,0.395,0.777,0.52,-0.98,-1.46
233235.625986,0.482,0.398,0.78,-0.34,-0.82,-1.46
233235.640584,0.484,0.401,0.78,-1.56,-1.04,-1.65
233235.645365,0.486,0.405,0.775,-2.69,-1.04,-1.62
233235.655584,0.485,0.406,0.775,-3.23,-1.04,-1.04
233235.665116,0.486,0.405,0.77,-3.08,-0.82,-0.55
233235.675906,0.485,0.404,0.767,-1.98,-0.43,-0.21
233235.686554,0.486,0.401,0.765,-0.43,0.15,0.27
233235.695819,0.484,0.398,0.771,1.13,0.61,0.61
233235.710334,0.483,0.4,0.772,1.92,0.82,0.34
233235.715372,0.485,0.404,0.766,2.9,1.31,-0.12
233235.725175,0.486,0.407,0.772,4.49,1.71,-0.03
233235.735239,0.487,0.409,0.778,4.61,1.68,0.06
233235.745346,0.487,0.408,0.782,3.57,1.25,0.09
233235.756740,0.491,0.406,0.784,2.11,0.76,0.21
233235.765977,0.491,0.406,0.785,0.73,0.27,0.43
233235.778102,0.49,0.408,0.78,-1.19,-0.27,0.64
233235.790434,0.488,0.408,0.772,-2.32,-0.52,0.58
233235.795955,0.486,0.407,0.767,-2.32,-0.55,0.79
233235.805482,0.483,0.405,0.766,-1.71,-0.52,0.73
233235.815496,0.48,0.405,0.769,-0.46,0.0,0.7
233235.827532,0.481,0.407,0.774,0.52,0.34,0.64
233235.835483,0.482,0.408,0.771,0.95,0.52,0.61
233235.846897,0.481,0.407,0.773,1.86,0.7,0.43
233235.859446,0.481,0.407,0.773,2.47,0.7,0.52
233235.867398,0.483,0.404,0.784,2.17,0.55,0.85
233235.874468,0.486,0.403,0.781,0.4,0.21,0.79
233235.886707,0.485,0.402,0.776,-0.82,0.12,0.61
233235.895033,0.483,0.407,0.772,-1.34,-0.12,0.67
233235.905381,0.48,0.408,0.767,-1.4,-0.09,0.58
233235.915799,0.48,0.406,0.774,-0.67,0.12,0.37
233235.926075,0.479,0.411,0.774,-0.46,0.24,0.21
233235.939621,0.479,0.414,0.775,-0.4,0.31,-0.03
233235.946358,0.48,0.414,0.77,-0.27,0.31,0.06
233235.954706,0.483,0.409,0.762,0.24,0.43,0.49
233235.965293,0.483,0.402,0.766,1.28,0.64,0.67
233235.975399,0.483,0.397,0.773,1.65,0.7,0.67
233235.985663,0.484,0.399,0.777,1.13,0.7,0.55
233235.995968,0.486,0.399,0.777,0.82,0.73,0.27
233236.009335,0.486,0.402,0.777,0.95,0.55,0.21
233236.015142,0.486,0.404,0.78,1.01,0.15,0.34
233236.024340,0.489,0.402,0.78,0.89,-0.24,0.0
233236.035079,0.488,0.402,0.78,0.67,-0.52,-0.12
233236.045269,0.488,0.4,0.775,0.27,-0.7,0.0
233236.057466,0.49,0.402,0.774,0.09,-0.76,0.0
233236.065801,0.489,0.409,0.773,-0.18,-0.89,0.43
233236.076005,0.488,0.411,0.767,0.12,-0.7,0.95
233236.089337,0.487,0.408,0.764,0.95,-0.43,1.28
233236.095391,0.486,0.407,0.766,1.53,-0.31,1.37
233236.104714,0.48,0.403,0.768,2.2,-0.18,1.65
233236.115296,0.483,0.402,0.763,3.08,0.27,1.65
233236.125394,0.484,0.403,0.762,4.0,0.58,1.46
233236.135571,0.482,0.404,0.766,5.04,0.95,1.07
233236.145691,0.485,0.405,0.773,5.71,1.07,0.82
233236.156201,0.49,0.405,0.77,5.4,1.13,0.55
233236.169202,0.494,0.41,0.773,4.94,1.31,-0.03
233236.175000,0.491,0.415,0.782,3.42,1.13,-0.06
233236.184583,0.492,0.414,0.782,1.65,0.7,0.06
233236.195028,0.492,0.414,0.776,0.64,0.37,0.27
233236.205590,0.488,0.413,0.768,0.37,0.21,0.79
233236.215780,0.485,0.408,0.771,0.21,0.12,1.1
233236.226246,0.483,0.406,0.77,-0.31,0.0,1.25
233236.239407,0.484,0.405,0.767,-0.27,-0.03,1.22
233236.245303,0.484,0.404,0.764,0.24,-0.03,1.1
233236.254766,0.48,0.404,0.762,1.16,0.0,1.07
233236.265556,0.479,0.406,0.763,1.98,0.21,0.82
233236.275298,0.48,0.407,0.766,2.56,0.43,0.61
233236.285304,0.478,0.409,0.765,2.72,0.61,0.49
233236.295656,0.471,0.402,0.755,1.53,0.92,0.15
233236.305986,0.485,0.419,0.764,0.58,1.53,-0.24
233236.319430,0.479,0.413,0.764,2.59,1.8,-0.15
233236.325017,0.475,0.406,0.769,2.66,2.2,-0.09
233236.334780,0.481,0.408,0.772,1.4,2.41,-0.18
233236.344972,0.488,0.413,0.777,-0.24,2.29,-0.21
233236.355481,0.488,0.417,0.778,-0.24,1.89,-0.37
233236.365540,0.49,0.421,0.784,0.12,1.46,-0.24
233236.375959,0.489,0.422,0.785,0.4,0.7,-0.06
233236.390090,0.486,0.409,0.784,0.18,0.27,-0.06
233236.395313,0.486,0.408,0.778,-0.37,-0.12,-0.24
233236.405933,0.483,0.408,0.773,-0.64,-0.37,-0.12
233236.416540,0.483,0.403,0.765,-0.27,-0.49,-0.24
233236.425048,0.482,0.402,0.763,0.31,-0.55,-0.46
233236.437256,0.481,0.406,0.766,0.49,-0.31,-0.7
233236.446807,0.482,0.412,0.768,0.64,-0.03,-0.89
233236.456485,0.485,0.414,0.767,0.76,-0.06,-1.1
233236.469358,0.484,0.416,0.763,1.4,0.18,-1.16
233236.474990,0.482,0.417,0.763,2.32,0.37,-0.73
233236.484626,0.482,0.417,0.77,2.72,0.46,-0.58
233236.495678,0.486,0.418,0.778,2.08,0.4,-0.58
233236.506739,0.487,0.419,0.777,1.28,0.27,-0.7
233236.515822,0.485,0.417,0.773,0.79,0.06,-0.92
233236.525976,0.482,0.417,0.77,0.58,0.03,-0.98
233236.539312,0.483,0.416,0.769,0.55,0.15,-1.22
233236.546396,0.482,0.414,0.771,0.4,0.06,-1.4
233236.556277,0.482,0.411,0.775,0.21,0.03,-1.62
233236.565828,0.482,0.411,0.771,-0.52,-0.03,-1.89
233236.575091,0.481,0.412,0.77,-1.16,0.06,-1.77
233236.585538,0.483,0.414,0.771,-1.92,0.03,-1.65
233236.598846,0.484,0.416,0.773,-2.62,-0.18,-1.37
233236.606184,0.483,0.417,0.771,-3.11,-0.18,-1.31
233236.619966,0.481,0.417,0.77,-3.27,-0.15,-0.98
233236.626581,0.481,0.416,0.77,-2.9,-0.24,-0.67
233236.634828,0.481,0.412,0.769,-2.59,-0.18,-0.67
233236.646908,0.48,0.411,0.77,-2.2,-0.15,-1.01
233236.655792,0.481,0.412,0.764,-1.86,0.06,-1.62
233236.666046,0.481,0.413,0.764,-1.22,0.31,-1.83
233236.676350,0.482,0.411,0.77,-0.92,0.21,-1.86
233236.689369,0.482,0.412,0.773,-1.31,0.06,-1.92
233236.695223,0.483,0.411,0.771,-1.5,0.06,-2.01
233236.704913,0.481,0.416,0.769,-1.62,0.03,-1.95
233236.715389,0.482,0.417,0.769,-1.46,0.12,-1.68
233236.725076,0.481,0.416,0.77,-1.19,0.03,-1.19
233236.735377,0.481,0.413,0.767,-1.16,0.12,-0.98
233236.745342,0.48,0.411,0.767,-0.82,0.37,-0.67
233236.756013,0.481,0.412,0.766,-0.89,0.46,-0.64
233236.769060,0.483,0.412,0.764,-0.46,0.55,-0.67
233236.774576,0.484,0.412,0.765,0.37,0.89,-0.58
233236.784966,0.485,0.415,0.77,0.73,0.89,-0.4
233236.794843,0.485,0.415,0.77,0.64,0.85,-0.21
233236.805437,0.485,0.412,0.771,0.4,0.73,-0.31
233236.815733,0.485,0.411,0.771,0.27,0.64,-0.15
233236.825895,0.483,0.414,0.77,0.18,0.46,0.06
233236.840033,0.484,0.414,0.77,0.24,0.58,0.12
233236.845392,0.484,0.415,0.769,0.09,0.55,0.18
233236.855552,0.483,0.415,0.767,0.12,0.52,0.21
233236.864748,0.481,0.414,0.769,0.43,0.7,0.21
233236.874773,0.481,0.412,0.773,0.58,0.73,0.12
233236.885197,0.481,0.414,0.773,0.37,0.85,-0.09
233236.896779,0.484,0.412,0.77,0.67,0.85,-0.09
233236.906956,0.482,0.409,0.772,1.34,0.98,-0.06
233236.919210,0.48,0.409,0.775,1.1,0.79,0.06
233236.925425,0.48,0.409,0.771,0.49,0.64,-0.09
233236.934742,0.479,0.411,0.774,0.18,0.73,0.03
233236.944663,0.479,0.416,0.774,-0.18,0.7,0.09
233236.955215,0.479,0.414,0.771,-0.24,0.76,-0.06
233236.965456,0.478,0.413,0.764,0.03,0.89,-0.12
233236.975606,0.476,0.413,0.763,1.13,1.25,-0.09
233236.988945,0.475,0.413,0.771,2.14,1.37,0.03
233236.994982,0.476,0.415,0.777,1.74,1.28,-0.12
233237.004463,0.477,0.419,0.773,0.89,1.19,-0.49
233237.014529,0.476,0.42,0.77,0.64,1.19,-0.4
233237.024905,0.477,0.419,0.771,0.52,1.22,-0.15
233237.035584,0.478,0.418,0.773,-0.46,1.04,0.03
233237.045965,0.478,0.418,0.773,-1.1,0.98,-0.06
233237.056207,0.479,0.416,0.771,-0.85,0.98,0.24
233237.069223,0.477,0.413,0.77,-0.03,1.07,0.52
233237.074933,0.474,0.41,0.772,0.61,1.07,0.55
233237.084912,0.475,0.408,0.77,1.28,1.16,0.34
233237.094836,0.476,0.407,0.764,1.89,1.37,0.27
233237.105842,0.466,0.401,0.756,2.08,1.74,0.34
233237.115582,0.473,0.403,0.772,-0.85,2.56,0.95
233237.126111,0.499,0.441,0.785,-0.37,2.35,-0.12
233237.140143,0.48,0.428,0.776,1.19,1.4,-0.31
233237.146199,0.476,0.425,0.77,0.85,1.25,0.12
233237.155481,0.48,0.426,0.773,0.98,1.01,0.7
233237.165196,0.48,0.417,0.775,0.85,0.85,0.85
233237.175240,0.48,0.411,0.779,0.49,0.82,0.95
233237.186786,0.479,0.409,0.785,-0.73,0.55,0.82
233237.196099,0.479,0.413,0.774,-1.74,0.37,0.89
233237.206287,0.477,0.415,0.772,-1.83,0.12,1.01
233237.219231,0.475,0.415,0.772,-1.68,0.15,1.16
233237.225214,0.475,0.417,0.771,-1.53,0.09,1.19
233237.234783,0.476,0.419,0.768,-0.95,0.09,1.25
233237.246387,0.477,0.412,0.769,0.43,0.4,1.19
233237.255386,0.475,0.407,0.778,1.31,0.52,0.95
233237.265542,0.473,0.406,0.773,1.1,0.34,0.64
233237.276294,0.479,0.405,0.778,0.98,0.64,0.49
233237.290367,0.478,0.408,0.782,0.09,0.21,0.21
233237.296063,0.475,0.412,0.788,-0.98,-0.03,0.09
233237.304673,0.477,0.418,0.779,-2.47,-0.34,0.12
233237.315323,0.476,0.421,0.776,-3.3,-0.46,0.34
233237.326724,0.474,0.416,0.771,-3.23,-0.4,0.52
233237.335545,0.469,0.414,0.77,-2.81,-0.21,0.55
233237.345874,0.468,0.413,0.771,-2.14,-0.03,0.7
233237.357289,0.47,0.412,0.768,-1.59,-0.03,0.55
233237.370076,0.47,0.413,0.767,-1.25,0.18,0.31
233237.376024,0.471,0.414,0.764,-0.95,0.61,-0.06
233237.386152,0.473,0.415,0.761,-0.37,0.98,-0.31
233237.395591,0.472,0.415,0.761,0.61,1.62,-0.27
233237.405845,0.433,0.417,0.76,0.55,2.84,1.16
233237.415766,0.526,0.413,0.78,0.85,4.03,2.35
233237.426336,0.489,0.423,0.778,1.46,2.41,0.15
233237.436607,0.459,0.413,0.774,0.76,2.59,0.76
233237.449536,0.503,0.415,0.773,0.34,2.9,1.68
233237.455476,0.486,0.409,0.784,0.73,2.23,1.95
233237.465014,0.48,0.412,0.789,-0.55,1.74,2.44
233237.475322,0.486,0.418,0.788,-2.75,1.31,2.84
233237.485795,0.486,0.419,0.784,-3.57,1.13,3.02
233237.495507,0.482,0.422,0.774,-3.72,0.55,3.36
233237.506057,0.474,0.419,0.775,-3.02,0.64,3.27
233237.519141,0.47,0.417,0.772,-2.44,0.89,2.99
233237.525025,0.466,0.412,0.769,-1.62,0.85,2.5
233237.535134,0.464,0.407,0.772,-0.61,1.04,1.98
233237.544875,0.463,0.403,0.777,0.4,1.37,1.16
233237.555494,0.464,0.396,0.781,0.55,1.5,0.37
233237.566606,0.464,0.399,0.777,0.09,1.37,-0.61
233237.576004,0.468,0.4,0.777,-0.27,1.5,-1.28
233237.586070,0.47,0.403,0.777,-0.46,1.37,-1.53
233237.599386,0.47,0.404,0.782,-0.82,1.01,-1.59
233237.605207,0.441,0.42,0.782,-1.5,0.98,-1.65
233237.614711,0.491,0.396,0.778,-0.76,2.26,0.79
233237.625200,0.513,0.402,0.773,-0.64,1.25,-1.53
233237.635429,0.46,0.411,0.777,-0.95,0.55,-2.44
233237.645595,0.46,0.415,0.779,0.12,1.31,-1.01
233237.655920,0.504,0.407,0.776,0.73,1.43,-0.46
233237.669327,0.475,0.415,0.776,0.79,0.79,-1.19
233237.674920,0.477,0.411,0.774,1.4,1.13,-0.61
233237.684778,0.481,0.411,0.778,1.86,1.22,-0.03
233237.695099,0.478,0.41,0.779,1.71,1.01,0.64
233237.705061,0.475,0.411,0.777,1.34,0.85,1.16
233237.715796,0.472,0.414,0.775,0.89,0.7,1.46
233237.725862,0.469,0.418,0.772,0.67,0.82,1.53
233237.736022,0.469,0.418,0.773,0.76,0.98,1.89
233237.749903,0.466,0.416,0.771,0.7,0.98,2.01
233237.756702,0.468,0.409,0.769,1.07,1.25,1.74
233237.765785,0.467,0.407,0.774,1.89,1.56,1.56
233237.775096,0.467,0.408,0.779,2.38,1.62,1.53
233237.785696,0.469,0.406,0.781,2.59,1.74,1.28
233237.795734,0.47,0.407,0.783,2.81,1.62,1.01
233237.805906,0.47,0.408,0.783,3.02,1.46,0.89
233237.820011,0.471,0.406,0.783,3.11,1.31,0.58
233237.826172,0.472,0.406,0.782,2.62,0.89,0.37
233237.835804,0.471,0.408,0.781,2.23,0.34,0.37
233237.845030,0.468,0.41,0.78,1.68,0.0,-0.06
233237.855592,0.469,0.41,0.779,0.98,-0.09,-0.4
233237.866632,0.468,0.412,0.78,0.49,-0.09,-0.58
233237.875703,0.468,0.418,0.777,-0.12,-0.27,-0.67
233237.887603,0.469,0.416,0.777,-0.21,-0.37,-0.7
233237.899768,0.468,0.418,0.775,0.09,-0.27,-0.58
233237.905442,0.471,0.414,0.775,0.7,-0.06,-0.37
233237.916352,0.471,0.411,0.78,1.1,-0.15,-0.27
233237.925672,0.472,0.411,0.78,0.85,-0.34,-0.37
233237.935330,0.474,0.412,0.78,0.46,-0.34,-0.31
233237.945858,0.475,0.414,0.775,-0.12,-0.43,-0.15
233237.955839,0.477,0.415,0.772,-0.09,-0.55,-0.24
233237.970378,0.475,0.415,0.769,0.76,-0.37,-0.03
233237.977341,0.474,0.413,0.769,1.98,-0.31,0.64
233237.984788,0.476,0.412,0.769,3.02,-0.15,1.07
233237.996322,0.478,0.411,0.77,4.12,0.21,1.31
233238.005405,0.478,0.41,0.769,5.52,0.58,1.95
233238.015976,0.479,0.408,0.769,6.65,0.92,2.56
233238.026172,0.483,0.406,0.77,7.05,1.07,3.14
233238.036156,0.486,0.408,0.769,7.32,1.5,3.75
233238.049715,0.492,0.409,0.766,7.78,1.77,4.7
233238.055924,0.499,0.4,0.758,8.76,2.14,5.37
233238.065295,0.509,0.382,0.76,8.15,2.38,5.74
233238.075149,0.519,0.385,0.765,6.62,2.32,6.13
233238.085507,0.538,0.372,0.767,5.8,2.5,6.53
233238.095589,0.551,0.349,0.78,6.47,2.5,6.59
233238.105855,0.584,0.293,0.791,6.5,2.66,6.74
233238.119469,0.61,0.257,0.805,2.9,1.43,6.74
233238.126089,0.637,0.239,0.839,-2.75,-0.67,7.26
233238.134604,0.663,0.233,0.865,-9.22,-4.12,8.7
233238.145311,0.691,0.251,0.882,-15.84,-8.64,11.41
233238.155709,0.711,0.258,0.888,-20.87,-13.82,15.81
233238.169395,0.724,0.252,0.883,-24.99,-19.17,20.42
233238.176448,0.735,0.247,0.859,-28.44,-24.54,24.45
233238.186073,0.749,0.251,0.831,-30.73,-28.72,28.63
233238.195682,0.766,0.242,0.791,-30.0,-31.68,33.11
233238.210252,0.775,0.216,0.738,-27.22,-33.48,35.98
233238.217388,0.776,0.175,0.684,-23.62,-33.51,37.78
233238.226077,0.795,0.108,0.616,-19.44,-31.74,38.39
233238.237117,0.808,0.051,0.559,-16.75,-28.6,37.32
233238.249649,0.807,0.046,0.579,-18.4,-24.41,36.9
233238.256751,0.791,0.112,0.636,-27.71,-21.94,38.79
233238.265715,0.824,0.191,0.657,-39.12,-20.17,41.54
233238.275802,0.862,0.25,0.634,-43.28,-17.24,43.67
233238.289521,0.867,0.276,0.604,-41.69,-13.82,45.17
233238.296784,0.864,0.286,0.568,-36.74,-9.61,47.91
233238.305024,0.876,0.287,0.53,-30.0,-4.64,52.1
233238.315624,0.892,0.261,0.518,-22.55,0.76,54.84
233238.326483,0.873,0.238,0.504,-15.26,6.53,54.41
233238.340270,0.84,0.228,0.5,-8.45,13.55,52.37
233238.346401,0.816,0.214,0.515,-2.75,21.82,48.71
233238.355584,0.812,0.229,0.574,0.92,30.15,44.74
233238.365588,0.763,0.292,0.691,1.22,36.16,40.28
233238.376099,0.773,0.343,0.78,-2.84,38.7,38.06
233238.389389,0.864,0.343,0.834,-4.06,40.1,34.3
233238.395196,0.912,0.285,0.887,-2.87,39.25,28.78
233238.405431,0.945,0.216,0.901,-2.78,35.95,23.62
233238.416070,0.961,0.16,0.898,-6.41,30.34,19.29
233238.427485,0.95,0.106,0.881,-13.4,23.5,15.26
233238.441339,0.891,0.078,0.87,-23.9,17.06,9.89
233238.446658,0.797,0.092,0.877,-35.77,12.02,2.93
233238.455507,0.723,0.116,0.889,-46.63,9.86,-5.86
233238.466122,0.652,0.164,0.878,-52.8,11.35,-17.43
233238.479786,0.609,0.251,0.862,-53.13,15.32,-27.71
233238.486896,0.606,0.289,0.848,-47.03,21.79,-34.3
233238.496813,0.616,0.281,0.851,-35.22,30.46,-40.83
233238.506374,0.616,0.285,0.87,-22.06,38.76,-45.35
233238.519342,0.574,0.305,0.902,-11.35,45.11,-48.68
233238.527752,0.501,0.38,0.934,-3.69,49.5,-52.0
233238.535098,0.474,0.44,0.941,4.21,52.83,-54.78
233238.545982,0.454,0.424,0.934,12.33,56.31,-59.72
233238.559145,0.424,0.32,0.928,15.81,59.39,-65.95
233238.565406,0.364,0.221,0.939,9.4,61.68,-71.81
233238.575019,0.293,0.166,0.923,-6.35,62.29,-75.99
233238.585810,0.25,0.17,0.877,-26.18,62.5,-79.32
233238.596055,0.205,0.235,0.847,-43.61,63.45,-81.79
233238.609309,0.148,0.32,0.838,-52.34,65.68,-84.6
233238.617309,0.097,0.439,0.865,-49.59,68.97,-87.62
233238.625735,0.03,0.55,0.861,-36.26,71.38,-87.83
233238.636836,-0.004,0.575,0.862,-16.14,73.76,-88.08
233238.650196,-0.029,0.512,0.826,5.58,76.94,-89.91
233238.655334,-0.042,0.42,0.769,22.34,80.26,-93.08
233238.665718,-0.057,0.326,0.726,31.89,83.04,-97.93
233238.677587,-0.062,0.214,0.668,34.52,86.67,-104.34
233238.690364,-0.082,0.123,0.621,28.35,91.22,-111.51
233238.695838,-0.146,0.076,0.608,14.65,95.22,-117.22
233238.705712,-0.224,0.078,0.591,-3.36,99.58,-121.31
233238.719434,-0.269,0.107,0.583,-35.25,110.08,-125.55
233238.725356,-0.304,0.128,0.603,-44.98,117.04,-128.76
233238.735990,-0.336,0.124,0.631,-53.87,122.75,-133.3
233238.749696,-0.399,0.121,0.641,-61.07,128.45,-139.16
233238.756108,-0.441,0.139,0.654,-63.2,133.79,-144.44
233238.765900,-0.475,0.155,0.682,-61.59,138.31,-149.05
233238.778919,-0.558,0.154,0.75,-59.14,141.39,-152.47
233238.786175,-0.546,0.188,0.757,-55.85,139.81,-153.69
233238.795955,-0.531,0.288,0.747,-49.99,134.04,-152.41
233238.809180,-0.504,0.388,0.822,-39.37,126.93,-145.79
233238.816679,-0.446,0.402,0.968,-24.9,118.96,-135.47
233238.825586,-0.363,0.399,1.064,-13.34,106.6,-124.64
233238.837446,-0.288,0.469,1.128,-8.0,90.7,-110.6
233238.850185,-0.218,0.524,1.184,-1.31,75.99,-91.68
233238.855347,-0.173,0.516,1.229,7.57,61.31,-70.01
233238.865305,-0.152,0.487,1.235,15.56,46.48,-47.52
233238.876001,-0.15,0.415,1.209,23.07,32.78,-24.84
233238.890488,-0.17,0.301,1.177,27.62,20.36,-5.49
233238.896485,-0.207,0.191,1.125,26.37,9.58,6.99
233238.905028,-0.247,0.107,1.074,19.35,2.56,13.21
233238.915674,-0.282,0.053,1.034,9.13,-0.55,13.76
233238.926299,-0.311,0.034,0.991,-1.8,-0.43,10.5
233238.937461,-0.319,0.065,0.964,-12.09,2.08,5.89
233238.949988,-0.317,0.108,0.977,-18.83,6.35,1.16
233238.956922,-0.307,0.14,0.995,-21.12,11.05,-3.6
233238.965549,-0.287,0.155,1.005,-20.72,15.11,-8.55
233238.976094,-0.269,0.176,1.028,-19.96,18.1,-12.85
233238.990661,-0.245,0.211,1.064,-18.71,19.23,-15.29
233238.995869,-0.221,0.248,1.092,-16.02,18.16,-15.47
233239.005505,-0.21,0.275,1.124,-13.31,15.99,-14.25
233239.016050,-0.2,0.302,1.145,-11.51,12.57,-11.38
233239.027433,-0.198,0.315,1.145,-9.03,8.64,-7.57
233239.039900,-0.204,0.32,1.124,-6.23,4.36,-3.72
233239.046258,-0.201,0.311,1.115,-3.2,1.22,0.37
233239.056527,-0.197,0.277,1.095,-0.09,-1.5,3.54
233239.065409,-0.211,0.262,1.078,0.4,-4.88,5.22
233239.075976,-0.227,0.264,1.067,-0.37,-7.97,6.68
233239.086099,-0.239,0.266,1.037,-0.49,-10.04,8.12
233239.096264,-0.24,0.265,1.014,0.52,-10.74,9.0
233239.109865,-0.239,0.262,0.999,2.04,-10.56,9.58
233239.117807,-0.236,0.258,0.987,3.91,-9.86,9.37
233239.126158,-0.235,0.256,0.984,5.58,-9.09,8.45
233239.135972,-0.233,0.261,0.974,6.78,-8.7,7.75
233239.145454,-0.236,0.265,0.963,8.03,-8.18,7.63
233239.156220,-0.234,0.26,0.945,9.52,-7.26,8.0
233239.166705,-0.221,0.245,0.918,11.02,-5.89,8.03
233239.179931,-0.202,0.213,0.891,11.44,-4.3,7.32
233239.186745,-0.185,0.187,0.883,9.55,-3.14,5.62
233239.195570,-0.178,0.183,0.905,6.96,-3.17,4.36
233239.206177,-0.179,0.181,0.912,5.34,-3.91,4.12
233239.216136,-0.182,0.192,0.919,2.56,-4.55,4.18
233239.225893,-0.18,0.195,0.931,-0.89,-4.55,4.52
233239.237518,-0.177,0.193,0.93,-4.15,-4.0,4.43
233239.249513,-0.177,0.199,0.931,-7.14,-3.51,4.27
233239.256531,-0.172,0.218,0.937,-9.74,-2.81,4.24
233239.266409,-0.164,0.235,0.946,-10.83,-2.14,4.94
233239.276151,-0.16,0.23,0.95,-10.56,-1.65,5.34
233239.286859,-0.165,0.223,0.952,-9.8,-1.59,4.94
233239.296976,-0.171,0.231,0.963,-8.88,-1.95,4.3
233239.307473,-0.174,0.23,0.962,-6.62,-2.17,4.21
233239.320594,-0.173,0.225,0.954,-4.06,-2.04,3.75
233239.325447,-0.176,0.223,0.962,-2.29,-2.35,3.42
233239.335507,-0.181,0.214,0.962,-0.82,-2.41,3.11
233239.345140,-0.184,0.207,0.956,-0.55,-2.23,2.62
233239.355287,-0.184,0.21,0.95,-1.04,-1.92,2.47
233239.365678,-0.18,0.207,0.949,-1.25,-1.68,2.5
233239.376263,-0.18,0.203,0.946,-1.43,-1.28,2.66
233239.390469,-0.173,0.196,0.943,-1.59,-0.76,3.05
233239.394810,-0.168,0.185,0.943,-1.83,-0.24,2.53
233239.404687,-0.169,0.178,0.936,-2.59,0.24,1.46
233239.415397,-0.173,0.185,0.934,-3.94,0.67,0.37
233239.425988,-0.175,0.195,0.939,-4.88,0.89,0.21
233239.436680,-0.178,0.198,0.939,-5.25,1.22,0.21
233239.446442,-0.182,0.2,0.944,-5.58,1.56,0.12
233239.456962,-0.177,0.197,0.945,-5.92,2.26,0.0
233239.469645,-0.173,0.195,0.946,-6.2,3.11,-0.55
233239.475712,-0.17,0.194,0.956,-6.47,3.57,-1.04
233239.485122,-0.172,0.189,0.954,-6.78,3.6,-1.62
233239.495106,-0.176,0.198,0.963,-7.51,3.63,-1.8
233239.505672,-0.175,0.204,0.962,-7.39,3.3,-1.19
233239.515671,-0.18,0.206,0.962,-6.35,2.9,-0.92
233239.526024,-0.188,0.207,0.959,-4.97,2.75,-0.76
233239.540992,-0.196,0.209,0.959,-3.69,3.02,-0.76
233239.544861,-0.2,0.206,0.955,-2.23,3.2,-0.67
233239.554779,-0.199,0.197,0.953,-0.82,3.69,-0.89
233239.565172,-0.203,0.189,0.948,-0.64,4.06,-1.53
233239.575671,-0.204,0.195,0.945,-1.16,4.21,-1.95
233239.586856,-0.198,0.198,0.946,-1.01,4.76,-1.83
233239.596064,-0.195,0.196,0.948,-0.98,5.16,-1.83
233239.608134,-0.195,0.193,0.964,-1.65,5.25,-2.11
233239.619312,-0.199,0.191,0.973,-2.17,4.88,-2.23
233239.625757,-0.197,0.189,0.981,-3.02,4.88,-2.32
233239.634985,-0.2,0.192,0.987,-4.06,4.76,-2.35
233239.645212,-0.201,0.201,0.989,-5.01,4.67,-2.26
233239.655297,-0.197,0.206,0.996,-4.43,4.64,-1.86
233239.665578,-0.203,0.215,1.005,-2.99,3.85,-1.25
233239.676359,-0.201,0.218,1.008,-0.82,3.11,-0.85
233239.687539,-0.203,0.209,1.007,1.74,2.96,-0.85
233239.699891,-0.201,0.201,1.009,3.54,2.62,-0.95
233239.706464,-0.2,0.199,1.006,4.67,2.11,-1.19
233239.715856,-0.209,0.199,0.996,5.65,1.68,-1.59
233239.725663,-0.211,0.201,0.991,6.74,1.4,-1.77
233239.736277,-0.211,0.191,0.979,8.18,1.28,-1.95
233239.745665,-0.211,0.183,0.972,8.45,1.22,-2.59
233239.756814,-0.212,0.173,0.969,8.03,1.4,-3.23
233239.770544,-0.217,0.167,0.955,6.35,1.53,-4.18
233239.776972,-0.221,0.178,0.959,3.02,1.22,-4.91
233239.785278,-0.214,0.191,0.945,1.43,1.07,-4.61
233239.795966,-0.208,0.189,0.93,0.85,1.43,-3.66
233239.805529,-0.211,0.198,0.919,-0.58,1.46,-2.78
233239.815487,-0.205,0.199,0.924,-1.22,2.2,-1.98
233239.828129,-0.2,0.186,0.939,-0.92,2.96,-1.65
233239.836764,-0.202,0.178,0.939,-1.65,3.57,-2.08
233239.851189,-0.202,0.191,0.933,-3.39,4.67,-3.11
233239.856475,-0.202,0.207,0.955,-3.63,4.94,-3.36
233239.865422,-0.203,0.211,0.961,-1.98,5.22,-3.88
233239.875283,-0.209,0.218,0.967,0.09,5.43,-4.15
233239.886968,-0.214,0.221,0.968,2.5,5.19,-4.27
233239.896110,-0.211,0.213,0.961,4.82,5.25,-4.67
233239.906229,-0.209,0.209,0.967,6.5,5.28,-4.88
233239.920150,-0.211,0.205,0.975,7.35,5.19,-5.01
233239.926471,-0.209,0.203,0.989,7.45,5.1,-5.25
233239.934963,-0.212,0.21,0.997,7.2,4.73,-5.49
233239.945437,-0.211,0.21,0.998,7.26,4.36,-5.22
233239.955586,-0.211,0.213,0.996,6.84,4.09,-4.94
233239.966184,-0.208,0.217,0.998,6.16,3.91,-4.52
233239.977264,-0.204,0.211,0.995,5.86,3.75,-4.36
233239.986224,-0.199,0.2,0.978,5.16,3.6,-4.94
233240.000095,-0.201,0.202,0.974,3.6,3.45,-5.74
233240.006342,-0.202,0.206,0.984,2.84,3.2,-6.29
233240.015462,-0.212,0.212,0.981,2.69,2.66,-6.71
233240.025648,-0.218,0.223,0.985,2.26,2.04,-6.32
233240.035596,-0.222,0.237,0.995,1.95,1.43,-5.74
233240.045873,-0.228,0.247,0.998,2.38,0.98,-5.1
233240.056057,-0.227,0.25,0.996,3.45,1.01,-4.15
233240.069540,-0.223,0.239,0.996,4.67,1.01,-3.27
233240.075314,-0.219,0.228,0.995,5.1,1.01,-3.17
233240.085129,-0.214,0.223,0.993,4.7,0.82,-3.17
233240.095253,-0.215,0.22,0.996,4.27,0.18,-3.33
233240.106838,-0.217,0.216,0.99,3.66,-0.49,-3.6
233240.115692,-0.217,0.215,0.995,2.62,-0.95,-3.6
233240.127507,-0.222,0.22,0.998,1.22,-1.25,-3.63
233240.137613,-0.227,0.23,0.997,-0.03,-1.59,-3.51
233240.150410,-0.231,0.237,0.987,-0.49,-1.71,-3.36
233240.155120,-0.229,0.24,0.982,0.43,-1.65,-3.2
233240.165249,-0.226,0.229,0.979,1.56,-1.46,-3.14
233240.175150,-0.224,0.227,0.981,1.8,-1.65,-3.6
233240.186586,-0.219,0.236,0.987,1.83,-1.98,-3.85
233240.195679,-0.21,0.24,0.982,2.59,-2.23,-3.66
233240.205995,-0.204,0.238,0.976,3.17,-2.69,-3.66
233240.220864,-0.197,0.234,0.978,3.42,-3.14,-3.66
233240.226328,-0.195,0.232,0.978,3.72,-3.75,-3.51
233240.235025,-0.201,0.228,0.976,3.54,-4.33,-3.05
233240.246273,-0.202,0.222,0.965,2.66,-4.61,-2.93
233240.255896,-0.201,0.218,0.954,1.1,-4.7,-3.08
233240.265588,-0.2,0.222,0.95,-0.24,-4.61,-3.27
233240.276590,-0.203,0.234,0.951,-1.31,-4.55,-3.14
233240.286669,-0.209,0.247,0.945,-1.98,-4.49,-2.99
233240.300221,-0.208,0.258,0.94,-0.27,-3.33,-2.5
233240.306381,-0.204,0.259,0.936,1.01,-2.62,-2.44
233240.315475,-0.2,0.252,0.929,1.92,-2.29,-2.66
233240.325491,-0.198,0.243,0.937,2.29,-2.38,-3.14
233240.335992,-0.202,0.233,0.941,1.53,-2.53,-3.2
233240.346097,-0.212,0.238,0.944,0.67,-2.32,-2.66
233240.356439,-0.219,0.243,0.947,-0.06,-1.86,-2.44
233240.370642,-0.22,0.247,0.949,-0.4,-1.28,-2.38
233240.376288,-0.219,0.255,0.95,-0.7,-0.98,-2.23
233240.384732,-0.219,0.264,0.96,-0.12,-0.79,-1.83
233240.394992,-0.211,0.263,0.963,1.16,-0.67,-1.31
233240.405388,-0.208,0.258,0.97,1.98,-0.82,-0.95
233240.416000,-0.199,0.25,0.972,2.56,-0.95,-0.76
233240.427203,-0.192,0.239,0.966,2.56,-1.46,-0.82
233240.436762,-0.19,0.234,0.964,1.62,-1.77,-0.95
233240.449983,-0.19,0.23,0.964,0.46,-1.8,-0.79
233240.455756,-0.194,0.232,0.962,-0.79,-2.26,-0.34
233240.465329,-0.198,0.234,0.965,-1.77,-2.44,0.15
233240.475085,-0.203,0.236,0.968,-2.32,-2.5,0.58
233240.485607,-0.205,0.235,0.966,-2.78,-2.44,0.67
233240.495827,-0.207,0.233,0.962,-2.93,-2.32,0.55
233240.506215,-0.205,0.225,0.96,-2.69,-1.86,0.4
233240.519480,-0.204,0.224,0.96,-2.69,-1.43,0.12
233240.525832,-0.202,0.227,0.962,-2.47,-1.31,-0.18
233240.534508,-0.2,0.228,0.968,-1.68,-1.4,-0.46
233240.545035,-0.201,0.231,0.969,-0.76,-1.56,-0.7
233240.555221,-0.201,0.231,0.964,0.12,-1.4,-1.01
233240.565528,-0.198,0.236,0.97,0.82,-1.13,-1.28
233240.575943,-0.197,0.236,0.975,1.5,-1.04,-1.34
233240.586279,-0.198,0.232,0.971,1.71,-1.07,-1.16
233240.600374,-0.196,0.226,0.963,1.46,-1.13,-0.95
233240.606298,-0.197,0.23,0.961,0.61,-1.19,-0.58
233240.615255,-0.201,0.236,0.962,-0.06,-1.56,-0.12
233240.625227,-0.204,0.232,0.96,-0.18,-1.83,0.49
233240.635444,-0.208,0.232,0.951,-0.79,-2.04,0.92
233240.645780,-0.209,0.236,0.951,-1.19,-2.08,1.22
233240.655991,-0.21,0.233,0.954,-0.79,-1.92,1.65
233240.670756,-0.208,0.232,0.95,-0.58,-1.68,2.11
233240.676144,-0.205,0.231,0.95,-0.34,-1.46,2.29
233240.684647,-0.202,0.225,0.948,-0.12,-1.22,2.04
233240.695513,-0.204,0.225,0.946,-0.03,-1.01,1.86
233240.705658,-0.205,0.225,0.948,0.12,-0.64,2.01
233240.716043,-0.203,0.219,0.949,0.43,-0.15,1.89
233240.726072,-0.201,0.217,0.948,0.4,0.03,1.74
233240.737089,-0.2,0.219,0.946,0.21,0.06,1.68
233240.750528,-0.204,0.224,0.952,0.12,-0.09,1.53
233240.755647,-0.205,0.227,0.952,0.46,-0.06,2.11
233240.764871,-0.206,0.217,0.95,0.92,0.12,2.38
233240.775794,-0.208,0.207,0.947,0.52,0.55,2.26
233240.785362,-0.206,0.206,0.949,-0.21,0.95,1.92
233240.797086,-0.204,0.208,0.953,-0.73,1.31,1.53
233240.807203,-0.203,0.211,0.954,-1.07,1.71,1.16
233240.817446,-0.197,0.21,0.953,-1.16,2.01,0.89
233240.829763,-0.191,0.211,0.959,-1.01,2.14,0.46
233240.835778,-0.191,0.218,0.965,-0.85,1.89,0.0
233240.845097,-0.193,0.228,0.969,-0.55,1.56,-0.15
233240.855390,-0.195,0.228,0.965,0.15,1.53,0.12
233240.866437,-0.194,0.226,0.964,0.76,1.62,0.61
233240.875905,-0.194,0.222,0.963,1.13,1.56,1.16
233240.886219,-0.196,0.217,0.962,1.01,1.43,1.31
233240.899274,-0.197,0.211,0.956,0.64,1.65,1.13
233240.905140,-0.197,0.212,0.954,0.49,2.08,0.73
233240.915067,-0.199,0.21,0.96,0.15,2.35,0.46
233240.924980,-0.202,0.207,0.96,-0.21,2.66,-0.03
233240.935369,-0.204,0.209,0.962,-0.79,2.9,-0.76
233240.946115,-0.205,0.213,0.963,-1.22,2.93,-1.43
233240.956273,-0.205,0.223,0.972,-1.19,3.08,-1.65
233240.966345,-0.209,0.23,0.982,-0.61,3.05,-1.46
233240.980721,-0.211,0.231,0.985,0.06,3.02,-1.28
233240.986270,-0.215,0.225,0.984,0.55,2.81,-1.34
233240.995058,-0.217,0.227,0.983,0.58,2.69,-1.31
233241.006122,-0.213,0.231,0.977,0.55,2.59,-1.01
233241.015777,-0.213,0.231,0.976,1.04,2.44,-0.67
233241.025906,-0.209,0.225,0.971,1.4,2.2,-0.31
233241.036159,-0.204,0.216,0.971,1.1,1.77,-0.34
233241.050717,-0.204,0.212,0.972,0.31,1.28,-0.61
233241.056287,-0.205,0.218,0.973,-0.58,0.85,-0.58
233241.065088,-0.206,0.225,0.971,-1.16,0.52,-0.24
233241.076824,-0.203,0.227,0.972,-1.34,0.4,-0.06
233241.085386,-0.204,0.229,0.971,-1.34,0.34,0.15
233241.095745,-0.205,0.231,0.966,-0.95,0.37,0.24
233241.105954,-0.204,0.228,0.961,-0.4,0.76,0.06
233241.116195,-0.207,0.223,0.96,-0.24,1.01,-0.27
233241.130116,-0.209,0.226,0.963,-0.67,1.04,-0.52
233241.135521,-0.211,0.225,0.965,-1.25,0.89,-0.76
233241.144974,-0.214,0.232,0.961,-1.65,0.82,-0.76
233241.155182,-0.214,0.232,0.958,-1.59,1.04,-0.52
233241.165450,-0.209,0.235,0.957,-1.59,0.89,-0.03
233241.175774,-0.207,0.233,0.961,-1.46,0.61,0.31
233241.186518,-0.207,0.227,0.959,-1.56,0.46,0.64
233241.200808,-0.209,0.228,0.965,-1.86,0.0,1.04
233241.205198,-0.209,0.228,0.963,-2.11,-0.21,1.25
233241.215474,-0.208,0.229,0.96,-2.2,-0.15,1.53
233241.225158,-0.211,0.229,0.961,-1.86,0.06,1.65
233241.235555,-0.209,0.228,0.958,-1.43,0.27,1.68
233241.246827,-0.206,0.221,0.957,-0.79,0.4,1.59
233241.258547,-0.205,0.218,0.954,-0.27,0.61,1.22
233241.268221,-0.203,0.221,0.965,0.09,0.89,1.04
233241.279609,-0.203,0.22,0.97,0.52,1.16,0.92
233241.285234,-0.206,0.22,0.971,0.61,0.98,0.7
233241.295023,-0.207,0.218,0.969,0.67,0.95,0.4
233241.306160,-0.207,0.216,0.965,0.76,0.82,0.31
233241.315735,-0.207,0.216,0.968,0.4,0.61,0.34
233241.325770,-0.208,0.214,0.973,-0.18,0.27,0.46
233241.337382,-0.211,0.217,0.976,-0.76,-0.09,0.58
233241.350098,-0.211,0.219,0.971,-1.31,-0.31,0.82
233241.355626,-0.209,0.217,0.96,-1.25,-0.27,0.85
233241.365019,-0.212,0.218,0.963,-1.65,-0.31,0.58
233241.375071,-0.208,0.225,0.976,-1.56,-0.58,1.01
233241.385434,-0.208,0.221,0.972,-0.92,-0.64,1.31
233241.395635,-0.209,0.219,0.968,-0.55,-0.37,0.98
233241.405906,-0.208,0.215,0.966,-0.03,-0.15,0.58
233241.416257,-0.209,0.217,0.966,0.18,-0.06,0.31
233241.429586,-0.209,0.213,0.968,0.24,0.31,0.12
233241.436242,-0.211,0.213,0.971,0.03,0.27,-0.06
233241.445189,-0.209,0.213,0.969,-0.52,0.46,-0.34
233241.455334,-0.21,0.216,0.969,-0.98,0.31,-0.55
233241.465868,-0.211,0.224,0.976,-1.16,0.18,-0.24
233241.477234,-0.209,0.226,0.978,-0.95,-0.03,0.03
233241.486163,-0.208,0.226,0.976,-0.76,-0.24,0.27
233241.500104,-0.208,0.222,0.972,-0.67,-0.31,0.46
233241.506227,-0.206,0.221,0.971,-0.61,-0.49,0.58
233241.514913,-0.206,0.219,0.971,-0.79,-0.73,0.64
233241.525138,-0.203,0.214,0.966,-1.07,-0.92,0.64
233241.536771,-0.208,0.214,0.965,-1.65,-1.07,0.64
233241.547904,-0.21,0.221,0.965,-2.47,-0.95,0.64
233241.555942,-0.209,0.224,0.964,-2.69,-0.95,0.73
233241.566315,-0.208,0.221,0.964,-2.44,-0.89,1.04
233241.582144,-0.205,0.22,0.966,-2.2,-0.79,1.07
233241.585966,-0.205,0.224,0.969,-1.98,-0.92,1.04
233241.594840,-0.207,0.226,0.967,-1.34,-1.16,1.01
233241.606465,-0.207,0.224,0.962,-0.55,-1.22,0.92
233241.616457,-0.207,0.216,0.958,0.15,-1.1,0.92
233241.627034,-0.209,0.213,0.956,0.27,-1.01,0.76
233241.636151,-0.206,0.211,0.958,0.12,-0.92,0.58
233241.650178,-0.207,0.214,0.96,-0.06,-0.89,0.67
233241.655408,-0.207,0.22,0.957,-0.55,-0.85,0.85
233241.664739,-0.204,0.22,0.957,-0.64,-0.67,0.98
233241.675511,-0.2,0.215,0.96,-0.43,-0.34,1.01
233241.685307,-0.2,0.208,0.958,-0.61,-0.18,1.04
233241.696463,-0.198,0.207,0.957,-0.98,-0.18,0.61
233241.706608,-0.204,0.212,0.96,-1.22,-0.21,0.24
233241.716091,-0.208,0.217,0.961,-1.28,-0.4,0.03
233241.730406,-0.21,0.221,0.959,-0.79,-0.24,0.12
233241.735141,-0.21,0.226,0.959,0.15,-0.15,0.31
233241.744883,-0.208,0.221,0.96,1.19,0.12,0.34
233241.755512,-0.206,0.215,0.958,1.59,0.46,0.46
233241.765466,-0.205,0.209,0.959,1.65,0.61,0.34
233241.776271,-0.206,0.205,0.96,1.25,0.64,0.06
233241.786610,-0.207,0.205,0.96,0.12,0.7,-0.24
233241.799717,-0.204,0.212,0.962,-0.67,0.95,-0.21
233241.805370,-0.202,0.215,0.967,-0.92,0.89,-0.09
233241.816458,-0.2,0.216,0.969,-1.13,0.82,-0.09
233241.825943,-0.199,0.217,0.969,-1.25,0.85,-0.03
233241.835352,-0.197,0.218,0.975,-1.01,0.58,-0.06
233241.846821,-0.195,0.227,0.979,-1.13,0.12,0.31
233241.855964,-0.194,0.237,0.98,-0.98,-0.21,1.25
233241.866529,-0.193,0.233,0.987,-0.27,-0.61,1.98
233241.879506,-0.191,0.222,0.986,-0.27,-1.46,2.72
233241.885604,-0.191,0.216,0.983,-0.98,-1.74,2.75
233241.894731,-0.191,0.216,0.981,-1.53,-2.08,2.66
233241.906072,-0.192,0.215,0.977,-2.04,-2.2,2.78
233241.916060,-0.191,0.218,0.975,-2.14,-2.2,2.81
233241.926367,-0.191,0.219,0.98,-2.08,-2.32,2.44
233241.936295,-0.19,0.222,0.975,-2.04,-2.29,2.17
233241.950752,-0.186,0.213,0.979,-1.95,-2.08,1.8
233241.956625,-0.191,0.207,0.975,-2.32,-1.77,0.92
233241.966207,-0.188,0.208,0.968,-2.99,-1.31,0.31
233241.975089,-0.191,0.208,0.968,-3.75,-0.89,-0.31
233241.987538,-0.195,0.213,0.976,-4.64,-0.82,-0.79
233241.996898,-0.194,0.22,0.976,-4.85,-0.95,-0.92
233242.005871,-0.192,0.23,0.975,-4.91,-1.04,-0.52
233242.017077,-0.189,0.229,0.971,-4.67,-1.25,0.12
233242.030390,-0.184,0.226,0.965,-4.12,-1.4,0.31
233242.035252,-0.18,0.215,0.965,-3.42,-1.68,0.67
233242.044797,-0.181,0.2,0.958,-3.42,-2.04,0.95
233242.055257,-0.176,0.192,0.964,-4.55,-2.26,0.89
233242.066035,-0.182,0.185,0.963,-5.98,-2.93,1.13
233242.076995,-0.188,0.186,0.956,-8.06,-3.69,1.89
233242.086998,-0.192,0.189,0.953,-9.25,-4.36,2.9
233242.096465,-0.193,0.194,0.951,-8.97,-4.64,4.15
233242.110537,-0.193,0.196,0.949,-7.63,-5.22,5.86
233242.115645,-0.2,0.192,0.949,-5.19,-6.23,7.39
233242.125606,-0.209,0.192,0.953,-2.66,-7.54,8.76
233242.135864,-0.213,0.196,0.963,0.21,-9.25,10.9
233242.146747,-0.219,0.203,0.971,2.84,-11.35,13.06
233242.156817,-0.223,0.227,0.988,4.21,-14.71,16.36
233242.170541,-0.223,0.254,1.003,5.8,-19.47,21.18
233242.176982,-0.222,0.264,0.994,8.51,-25.64,27.74
233242.186218,-0.226,0.214,0.97,10.28,-32.26,34.85
233242.197195,-0.241,0.151,0.951,8.21,-38.27,40.99
233242.210396,-0.268,0.111,0.923,2.08,-44.4,46.97
233242.216764,-0.284,0.097,0.899,-7.05,-49.01,51.61
233242.225563,-0.298,0.13,0.924,-17.27,-51.85,55.3
233242.236935,-0.328,0.192,0.949,-26.06,-55.09,60.88
233242.251048,-0.341,0.24,0.947,-29.33,-58.96,66.93
233242.256415,-0.358,0.284,0.953,-27.41,-63.39,71.78
233242.265456,-0.385,0.31,0.959,-20.97,-69.4,78.22
233242.276068,-0.404,0.297,0.934,-12.76,-76.51,84.41
233242.291114,-0.417,0.299,0.91,-5.4,-82.61,89.14
233242.295474,-0.411,0.301,0.913,0.76,-87.41,95.4
233242.306125,-0.394,0.273,0.969,5.43,-90.61,101.75
233242.316394,-0.415,0.222,0.998,5.83,-94.49,106.66
233242.326355,-0.45,0.196,1.018,1.53,-99.55,110.17
233242.340524,-0.459,0.19,1.005,-4.39,-105.29,113.5
233242.346722,-0.467,0.197,0.956,-11.02,-112.06,115.45
233242.356481,-0.487,0.241,0.916,-17.0,-118.53,116.37
233242.370339,-0.475,0.302,0.869,-19.1,-121.89,117.95
233242.376042,-0.411,0.323,0.866,-18.28,-121.25,118.59
233242.386582,-0.325,0.328,0.901,-15.41,-117.83,117.92
233242.400370,-0.221,0.293,0.952,-11.47,-112.89,118.11
233242.406559,-0.142,0.234,0.956,-8.76,-108.16,116.82
233242.416362,-0.102,0.204,0.965,-11.72,-104.56,113.9
233242.430306,-0.058,0.19,0.971,-15.78,-101.6,109.81
233242.435760,-0.026,0.193,0.958,-16.42,-99.43,103.61
233242.446694,0.002,0.211,0.937,-13.79,-98.24,97.32
233242.457383,0.016,0.251,0.905,-10.22,-97.54,92.1
233242.470890,0.068,0.305,0.897,-7.51,-94.97,89.66
233242.476438,0.177,0.292,0.913,-0.12,-88.81,88.32
233242.485980,0.215,0.263,0.966,6.44,-82.86,87.53
233242.496123,0.197,0.202,0.968,4.97,-78.98,89.36
233242.509294,0.218,0.117,0.981,1.95,-73.58,86.03
233242.516543,0.204,0.125,0.926,-6.29,-70.96,80.26
233242.526627,0.239,0.155,0.894,-14.04,-67.66,75.81
233242.535892,0.249,0.197,0.851,-17.98,-64.46,70.25
233242.547437,0.272,0.2,0.808,-17.09,-59.85,65.34
233242.560666,0.332,0.175,0.852,-10.93,-53.25,59.48
233242.567381,0.372,0.151,0.897,-5.8,-49.32,55.6
233242.577586,0.402,0.105,0.907,-1.25,-46.69,52.74
233242.587082,0.424,0.058,0.937,-0.31,-43.92,48.83
233242.599543,0.419,0.071,0.975,-4.79,-42.48,44.28
233242.605512,0.442,0.097,0.943,-8.15,-40.89,39.95
233242.615626,0.504,0.094,0.899,-3.33,-36.01,33.14
233242.626986,0.531,0.112,0.862,5.65,-30.58,26.25
233242.636431,0.563,0.137,0.843,17.58,-24.02,20.26
233242.651290,0.575,0.159,0.872,31.34,-17.4,13.67
233242.655770,0.572,0.181,0.924,45.56,-11.29,9.13
233242.665603,0.579,0.199,0.965,59.6,-5.07,5.31
233242.675836,0.609,0.203,0.973,74.01,1.4,0.21
233242.686565,0.656,0.192,0.925,90.12,8.67,-6.5
233242.700166,0.716,0.136,0.878,107.85,17.49,-14.65
233242.705649,0.749,0.069,0.824,123.57,25.67,-24.35
233242.716123,0.761,0.006,0.823,135.62,33.45,-34.67
233242.729136,0.764,-0.016,0.87,142.92,39.46,-42.97
233242.736128,0.776,-0.048,0.88,143.04,42.97,-49.93
233242.745942,0.778,-0.053,0.898,139.77,45.96,-59.24
233242.757701,0.801,-0.042,0.912,135.69,47.18,-63.91
233242.770809,0.826,-0.061,0.923,134.25,48.19,-68.58
233242.776982,0.826,-0.12,0.936,132.48,47.82,-75.47
233242.786216,0.826,-0.153,0.963,122.35,44.4,-79.38
233242.799618,0.849,-0.185,1.004,106.27,39.06,-82.64
233242.805769,0.838,-0.164,1.049,85.33,30.43,-86.09
233242.815766,0.802,-0.093,1.084,65.77,20.84,-87.44
233242.827048,0.782,-0.02,1.064,52.06,11.32,-89.51
233242.840409,0.763,0.005,1.017,42.09,2.84,-90.12
233242.846954,0.746,-0.04,0.922,34.7,-3.72,-92.41
233242.856180,0.7,-0.034,0.83,24.63,-10.74,-92.47
233242.866304,0.616,0.045,0.769,11.54,-16.82,-89.39
233242.876540,0.606,0.16,0.745,1.4,-20.57,-84.05
233242.890140,0.567,0.283,0.699,-5.71,-22.37,-81.18
233242.896089,0.546,0.396,0.654,-12.18,-22.89,-76.33
233242.905710,0.549,0.494,0.596,-15.38,-21.79,-69.67
233242.916760,0.603,0.637,0.567,-13.61,-16.42,-63.97
233242.930867,0.646,0.737,0.598,-7.39,-9.61,-52.71
233242.935564,0.595,0.749,0.677,0.76,-4.85,-34.58
233242.946676,0.561,0.651,0.709,10.71,-0.89,-21.0
233242.955869,0.56,0.524,0.703,16.02,1.68,-13.92
233242.966323,0.531,0.457,0.688,16.63,3.39,-10.32
233242.979596,0.489,0.43,0.736,16.02,4.94,-5.19
233242.985275,0.452,0.402,0.798,16.33,5.89,-1.28
233242.995810,0.423,0.394,0.833,17.49,6.04,-0.37
233243.005931,0.395,0.399,0.84,18.49,5.49,1.43
233243.016621,0.381,0.398,0.845,19.47,5.25,3.54
233243.026341,0.372,0.413,0.84,17.91,4.3,5.07
233243.039594,0.359,0.439,0.84,15.63,3.81,6.26
233243.045842,0.346,0.498,0.869,12.3,3.6,8.45
233243.055262,0.36,0.538,0.875,10.8,2.59,10.8
233243.066322,0.364,0.523,0.849,10.41,1.13,12.94
233243.076403,0.346,0.508,0.833,8.06,0.49,14.95
233243.089775,0.352,0.495,0.838,5.28,0.73,17.03
233243.096948,0.332,0.493,0.849,2.5,0.67,17.43
233243.105067,0.343,0.474,0.835,1.01,0.55,16.85
233243.115676,0.309,0.464,0.819,-0.46,0.15,16.39
233243.125788,0.299,0.472,0.811,-0.82,0.76,15.41
233243.136112,0.277,0.483,0.812,0.73,1.65,14.16
233243.149422,0.273,0.485,0.819,3.08,2.72,13.79
233243.155478,0.287,0.479,0.816,5.25,3.91,12.36
233243.166426,0.298,0.465,0.814,6.01,4.39,11.41
233243.175808,0.307,0.455,0.801,5.4,4.58,9.98
233243.185794,0.309,0.449,0.799,5.28,4.94,8.94
233243.196429,0.31,0.471,0.797,4.64,5.43,8.42
233243.206576,0.316,0.48,0.791,6.2,6.47,7.93
233243.219784,0.32,0.49,0.821,7.26,7.05,7.51
233243.226116,0.331,0.51,0.817,5.89,6.47,6.78
233243.235214,0.334,0.504,0.803,6.2,6.2,5.98
233243.245248,0.332,0.5,0.809,5.13,5.62,5.55
233243.255583,0.325,0.503,0.819,3.48,4.91,4.91
233243.265932,0.323,0.485,0.817,3.02,4.12,4.7
233243.276433,0.324,0.484,0.808,0.37,2.66,5.22
233243.289377,0.328,0.491,0.788,-0.24,2.26,5.4
233243.295131,0.317,0.488,0.786,1.95,2.11,5.95
233243.304725,0.319,0.489,0.79,3.42,2.35,7.08
233243.315437,0.326,0.483,0.778,5.74,3.45,6.84
233243.325641,0.328,0.475,0.782,8.58,4.39,5.98
233243.335916,0.305,0.494,0.828,8.09,4.43,6.01
233243.345960,0.321,0.503,0.83,6.44,4.12,6.07
233243.356605,0.327,0.495,0.808,6.01,3.66,4.58
233243.369708,0.321,0.497,0.819,4.7,2.9,4.24
233243.376488,0.311,0.51,0.867,2.69,1.62,4.43
233243.385576,0.321,0.492,0.868,-0.55,-0.03,4.52
233243.395588,0.337,0.472,0.818,-4.36,-1.22,3.66
233243.406532,0.343,0.465,0.802,-4.21,-1.8,3.51
233243.416167,0.325,0.464,0.805,-2.23,-2.59,3.42
233243.426496,0.309,0.464,0.819,-2.08,-2.66,3.23
233243.439437,0.321,0.474,0.8,-2.56,-2.44,1.92
233243.446630,0.302,0.479,0.778,-0.49,-1.31,-0.21
233243.454846,0.3,0.485,0.798,2.62,0.12,-0.98
233243.465457,0.3,0.495,0.829,2.11,-0.21,-0.92
233243.475368,0.314,0.484,0.834,0.64,-0.37,-1.65
233243.486204,0.326,0.466,0.817,-1.04,-0.12,-1.86
233243.496360,0.333,0.468,0.803,-1.89,-0.27,-1.04
233243.507011,0.34,0.481,0.806,-2.72,-1.1,-0.52
233243.520488,0.345,0.502,0.812,-3.48,-1.68,-0.27
233243.526039,0.342,0.503,0.803,-3.63,-2.04,-0.46
233243.536244,0.337,0.503,0.781,-1.77,-1.59,-0.95
233243.545676,0.337,0.501,0.778,2.11,-0.79,-1.16
233243.555694,0.334,0.495,0.796,6.1,-0.64,-0.82
233243.566729,0.333,0.481,0.818,6.81,-0.7,-0.73
233243.576236,0.344,0.476,0.824,4.46,-1.16,-1.46
233243.589834,0.347,0.475,0.808,2.29,-1.74,-2.53
233243.595285,0.347,0.471,0.79,0.61,-2.26,-2.62
233243.605027,0.347,0.481,0.792,-0.24,-2.47,-2.17
233243.615659,0.347,0.49,0.798,-0.37,-3.02,-1.53
233243.625396,0.345,0.496,0.793,-0.18,-3.08,-1.1
233243.635595,0.343,0.491,0.782,1.13,-2.5,-0.85
233243.645948,0.343,0.499,0.785,2.04,-1.71,-0.67
233243.656132,0.341,0.494,0.783,4.0,-1.22,-0.58
233243.669448,0.33,0.498,0.802,4.67,-0.52,-0.92
233243.675685,0.327,0.501,0.807,5.49,-0.46,-0.79
233243.685060,0.328,0.485,0.812,6.5,-0.37,-0.92
233243.704971,0.332,0.481,0.817,4.82,-0.34,-0.82
233243.707455,0.331,0.486,0.824,2.78,-0.46,-0.52
233243.716049,0.328,0.486,0.827,1.92,-0.79,-0.09
233243.727328,0.332,0.477,0.815,0.82,-0.89,0.15
233243.739506,0.335,0.475,0.807,-0.95,-0.92,-0.09
233243.744943,0.334,0.483,0.817,-2.08,-1.19,-0.27
233243.754784,0.333,0.487,0.826,-3.14,-1.68,-0.09
233243.765454,0.333,0.495,0.819,-4.3,-2.11,-0.34
233243.775460,0.331,0.491,0.807,-3.85,-2.26,-0.82
233243.785662,0.33,0.483,0.801,-3.3,-2.17,-1.07
233243.795919,0.331,0.481,0.795,-2.78,-1.65,-1.43
233243.806338,0.332,0.483,0.797,-1.83,-1.34,-1.74
233243.819566,0.336,0.481,0.801,-0.49,-0.95,-1.83
233243.825136,0.337,0.476,0.806,0.52,-0.89,-1.89
233243.835316,0.339,0.48,0.805,0.34,-0.67,-1.92
233243.845496,0.341,0.484,0.806,0.58,-0.67,-1.86
233243.855465,0.34,0.492,0.81,0.4,-0.92,-1.53
233243.865742,0.338,0.499,0.806,-0.4,-1.1,-1.34
233243.876019,0.334,0.5,0.803,-0.79,-1.19,-1.56
233243.887392,0.33,0.504,0.796,-1.5,-1.1,-1.56
233243.899566,0.328,0.501,0.789,-1.25,-0.64,-1.65
233243.905442,0.329,0.497,0.788,-0.03,0.12,-1.8
233243.915111,0.332,0.491,0.798,1.04,0.64,-1.92
233243.925382,0.335,0.488,0.806,1.37,0.79,-1.92
233243.937708,0.338,0.487,0.801,1.28,0.89,-1.86
233243.947601,0.339,0.48,0.799,1.86,0.89,-1.59
233243.956238,0.337,0.482,0.8,1.95,0.82,-1.01
233243.970573,0.332,0.487,0.802,1.59,1.01,-0.64
233243.976372,0.331,0.493,0.804,1.13,1.13,-0.43
233243.986339,0.33,0.5,0.795,0.34,1.19,-0.4
233243.996467,0.332,0.498,0.792,1.07,1.86,-0.43
233244.005607,0.334,0.496,0.799,1.98,2.23,-0.12
233244.015796,0.336,0.496,0.803,2.32,2.2,0.15
233244.026138,0.342,0.493,0.808,2.53,2.38,-0.21
233244.036488,0.347,0.494,0.814,2.72,2.29,-0.27
233244.049649,0.349,0.496,0.813,2.41,1.92,0.06
233244.055369,0.347,0.496,0.811,2.35,1.56,0.12
233244.065163,0.344,0.495,0.81,2.11,1.04,0.43
233244.075367,0.34,0.498,0.8,0.92,0.49,0.49
233244.085695,0.333,0.493,0.796,0.55,0.49,0.34
233244.096032,0.332,0.493,0.794,0.15,0.55,0.7
233244.106445,0.331,0.495,0.791,0.15,0.64,0.7
233244.119798,0.333,0.494,0.789,0.58,0.92,0.49
233244.125555,0.334,0.494,0.788,1.68,0.98,0.61
233244.134934,0.333,0.493,0.791,3.27,1.19,0.79
233244.145051,0.337,0.492,0.788,4.36,1.56,0.64
233244.155669,0.34,0.495,0.791,4.39,2.04,0.46
233244.165826,0.334,0.506,0.808,4.91,1.8,0.67
233244.177410,0.334,0.498,0.81,4.79,1.37,1.01
233244.186610,0.337,0.491,0.799,3.78,1.56,0.67
233244.199825,0.338,0.491,0.799,2.47,1.56,0.52
233244.205830,0.332,0.495,0.803,0.21,1.13,0.4
233244.215219,0.329,0.501,0.8,-0.61,0.95,0.18
233244.225555,0.333,0.498,0.797,0.03,1.31,0.49
233244.235798,0.335,0.499,0.794,1.5,1.74,1.07
233244.245830,0.338,0.492,0.783,3.36,2.23,1.28
233244.256124,0.329,0.495,0.785,4.27,2.69,0.95
233244.269453,0.325,0.503,0.792,6.41,2.9,1.65
233244.275299,0.332,0.495,0.799,7.66,3.08,1.92
233244.284862,0.331,0.494,0.799,6.81,2.9,1.01
233244.295200,0.329,0.495,0.794,5.43,2.62,0.18
233244.305693,0.339,0.493,0.793,3.45,2.53,-0.21
233244.316446,0.332,0.517,0.815,0.79,1.98,-0.61
233244.326327,0.337,0.522,0.82,0.7,1.31,-0.27
233244.336681,0.341,0.511,0.809,0.52,0.52,-0.06
233244.349642,0.338,0.51,0.805,-0.85,0.0,0.24
233244.357173,0.333,0.511,0.806,-1.83,-0.43,0.73
233244.365359,0.335,0.508,0.802,-2.35,-0.61,1.1
233244.375262,0.334,0.507,0.798,-2.81,-0.82,1.13
233244.385782,0.33,0.502,0.787,-2.44,-0.67,1.1
233244.395903,0.328,0.499,0.787,-1.16,-0.37,1.01
233244.406687,0.329,0.496,0.793,0.37,0.06,0.76
233244.420701,0.331,0.497,0.794,1.25,0.61,0.61
233244.425971,0.334,0.498,0.801,2.26,1.04,0.4
233244.434912,0.339,0.498,0.808,2.26,1.13,0.31
233244.445274,0.337,0.497,0.808,1.83,0.89,0.21
233244.455418,0.337,0.498,0.809,1.5,0.67,0.58
233244.465875,0.336,0.501,0.805,0.4,0.06,1.13
233244.476094,0.337,0.506,0.8,-0.7,0.06,1.19
233244.486325,0.336,0.51,0.801,-1.37,-0.12,1.34
233244.499748,0.334,0.509,0.801,-1.98,-0.43,1.65
233244.505938,0.333,0.509,0.795,-2.23,-0.7,1.68
233244.515134,0.33,0.506,0.782,-1.34,-0.61,1.71
233244.525339,0.327,0.501,0.777,0.4,-0.06,1.62
233244.535658,0.324,0.501,0.787,2.32,0.18,1.62
233244.546371,0.32,0.497,0.795,3.27,0.46,1.5
233244.556386,0.323,0.5,0.789,3.63,0.73,0.92
233244.569778,0.321,0.497,0.777,4.76,1.31,0.46
233244.575567,0.32,0.496,0.787,5.46,1.62,0.52
233244.584706,0.325,0.509,0.816,4.03,1.28,0.55
233244.595144,0.327,0.505,0.805,2.69,0.31,0.03
233244.605636,0.329,0.502,0.781,0.89,0.37,-0.73
233244.615728,0.331,0.51,0.778,0.46,0.79,-0.79
233244.625860,0.328,0.515,0.787,0.98,0.79,-0.34
233244.636404,0.33,0.514,0.798,1.1,0.79,-0.12
233244.649515,0.333,0.514,0.799,0.27,0.73,-0.46
233244.655280,0.336,0.516,0.783,0.89,1.07,-0.82
233244.664963,0.333,0.514,0.786,3.45,1.53,-0.67
233244.675250,0.333,0.511,0.799,5.04,1.37,-0.15
233244.685443,0.332,0.507,0.807,4.55,1.07,-0.03
233244.695781,0.337,0.507,0.796,2.9,0.92,-0.61
233244.706221,0.333,0.505,0.788,2.14,1.13,-0.82
233244.719431,0.329,0.505,0.785,1.98,1.43,-0.61
233244.725041,0.331,0.511,0.786,1.74,1.59,0.21
233244.734805,0.332,0.512,0.788,1.56,1.98,0.79
