t_monotonic,ax,ay,az,gx,gy,gz
325164.078000,-0.366,-0.609,0.709,-1.04,-14.47,1.92
325164.093000,-0.363,-0.601,0.704,-1.1,-15.38,2.81
325164.093000,-0.359,-0.585,0.698,-1.83,-15.78,3.6
325164.093000,-0.359,-0.576,0.698,-3.11,-15.69,4.55
325164.109000,-0.359,-0.571,0.714,-3.85,-15.66,6.16
325164.125000,-0.36,-0.559,0.724,-3.88,-16.48,7.72
325164.125000,-0.37,-0.539,0.733,-4.24,-17.79,9.4
325164.140000,-0.375,-0.527,0.741,-4.61,-18.95,11.99
325164.156000,-0.373,-0.512,0.751,-5.49,-20.2,14.8
325164.156000,-0.373,-0.499,0.753,-7.42,-21.73,17.58
325164.171000,-0.37,-0.491,0.752,-10.1,-23.29,20.05
325164.187000,-0.375,-0.481,0.756,-12.51,-24.63,22.43
325164.187000,-0.382,-0.485,0.756,-14.4,-25.97,25.45
325164.203000,-0.381,-0.521,0.73,-16.48,-28.2,29.79
325164.203000,-0.362,-0.584,0.696,-19.96,-30.73,34.15
325164.218000,-0.344,-0.651,0.677,-20.57,-32.69,36.38
325164.218000,-0.332,-0.688,0.668,-15.75,-32.53,35.65
325164.234000,-0.313,-0.7,0.647,-10.9,-30.7,33.97
325164.250000,-0.296,-0.705,0.621,-7.32,-27.44,31.77
325164.250000,-0.292,-0.693,0.623,-5.34,-23.99,30.0
325164.265000,-0.289,-0.681,0.628,-4.67,-20.6,28.53
325164.281000,-0.304,-0.648,0.674,-4.64,-17.94,27.19
325164.281000,-0.318,-0.625,0.716,-4.76,-16.88,26.83
325164.296000,-0.335,-0.593,0.76,-4.3,-17.52,27.04
325164.296000,-0.352,-0.555,0.778,-3.3,-19.41,28.47
325164.312000,-0.371,-0.529,0.78,-3.66,-21.33,31.07
325164.328000,-0.392,-0.516,0.785,-6.9,-23.41,34.52
325164.343000,-0.404,-0.512,0.788,-12.73,-26.4,38.09
325164.343000,-0.411,-0.517,0.792,-18.46,-29.79,41.63
325164.359000,-0.411,-0.522,0.787,-22.4,-33.45,44.74
325164.375000,-0.407,-0.519,0.771,-25.27,-36.56,47.7
325164.375000,-0.406,-0.526,0.758,-27.22,-38.48,50.81
325164.390000,-0.404,-0.548,0.744,-29.51,-39.98,54.14
325164.406000,-0.4,-0.564,0.734,-31.31,-41.2,56.37
325164.406000,-0.402,-0.577,0.727,-31.71,-41.87,57.47
325164.406000,-0.404,-0.59,0.71,-31.46,-42.21,58.6
325164.421000,-0.401,-0.601,0.704,-31.16,-42.57,59.36
325164.453000,-0.403,-0.612,0.696,-30.92,-43.24,59.6
325164.453000,-0.403,-0.631,0.686,-30.37,-44.22,60.03
325164.468000,-0.397,-0.65,0.669,-29.51,-44.89,60.18
325164.468000,-0.392,-0.67,0.654,-28.44,-44.71,59.63
325164.484000,-0.383,-0.699,0.644,-26.7,-43.86,58.32
325164.500000,-0.375,-0.711,0.633,-24.51,-42.36,55.76
325164.500000,-0.374,-0.718,0.634,-21.7,-40.01,53.01
325164.500000,-0.375,-0.727,0.632,-17.4,-37.51,51.52
325164.515000,-0.371,-0.744,0.624,-13.34,-35.37,51.06
325164.515000,-0.362,-0.76,0.621,-10.62,-34.06,49.71
325164.546000,-0.358,-0.771,0.617,-8.58,-32.93,47.33
325164.546000,-0.358,-0.775,0.612,-6.04,-31.25,44.83
325164.562000,-0.353,-0.772,0.594,-4.43,-28.99,41.63
325164.578000,-0.361,-0.77,0.605,-5.89,-25.24,37.63
325164.578000,-0.372,-0.782,0.629,-7.72,-21.88,34.73
325164.593000,-0.388,-0.789,0.652,-8.85,-19.99,31.89
325164.609000,-0.402,-0.803,0.676,-10.1,-20.02,29.21
325164.609000,-0.416,-0.831,0.683,-10.93,-21.73,26.89
325164.625000,-0.419,-0.857,0.678,-10.16,-23.53,24.02
325164.625000,-0.418,-0.872,0.666,-7.78,-24.29,21.03
325164.640000,-0.413,-0.88,0.661,-4.85,-24.38,17.76
325164.656000,-0.404,-0.875,0.651,-1.62,-24.51,14.13
325164.656000,-0.393,-0.873,0.633,-0.09,-25.03,10.99
325164.671000,-0.381,-0.876,0.62,-0.31,-25.18,8.67
325164.687000,-0.368,-0.877,0.625,0.0,-24.63,6.62
325164.687000,-0.364,-0.866,0.641,2.29,-23.22,4.43
325164.703000,-0.362,-0.852,0.656,6.41,-21.97,2.47
325164.718000,-0.364,-0.844,0.652,8.48,-21.7,0.82
325164.718000,-0.359,-0.857,0.65,5.86,-22.16,-1.22
325164.734000,-0.35,-0.876,0.651,1.34,-22.64,-4.7
325164.734000,-0.346,-0.895,0.651,-1.46,-22.61,-9.22
325164.750000,-0.343,-0.907,0.657,-0.4,-22.03,-13.82
325164.765000,-0.341,-0.9,0.659,4.15,-20.97,-18.43
325164.765000,-0.337,-0.888,0.649,9.31,-20.42,-21.91
325164.781000,-0.327,-0.87,0.635,13.15,-19.78,-24.51
325164.796000,-0.309,-0.854,0.617,15.41,-18.49,-27.13
325164.812000,-0.298,-0.84,0.608,16.14,-16.66,-30.43
325164.812000,-0.301,-0.82,0.615,15.75,-14.56,-33.94
325164.828000,-0.302,-0.804,0.631,14.98,-12.45,-37.08
325164.828000,-0.302,-0.791,0.651,14.92,-11.26,-39.98
325164.843000,-0.305,-0.762,0.667,16.48,-10.53,-42.79
325164.843000,-0.313,-0.724,0.679,19.32,-9.64,-44.31
325164.859000,-0.317,-0.694,0.693,22.25,-9.22,-44.19
325164.875000,-0.321,-0.672,0.715,24.72,-9.43,-43.18
325164.875000,-0.324,-0.654,0.736,27.38,-10.9,-41.78
325164.890000,-0.323,-0.639,0.741,30.52,-13.28,-40.07
325164.906000,-0.315,-0.621,0.735,32.93,-15.38,-38.64
325164.906000,-0.301,-0.621,0.723,33.81,-16.63,-37.57
325164.921000,-0.286,-0.621,0.709,34.0,-16.88,-37.08
325164.937000,-0.272,-0.616,0.712,34.79,-15.9,-37.9
325164.937000,-0.266,-0.595,0.713,35.95,-15.05,-39.25
325164.953000,-0.26,-0.57,0.712,36.81,-14.47,-39.43
325164.968000,-0.254,-0.544,0.718,37.97,-13.58,-38.67
325164.968000,-0.247,-0.509,0.727,39.06,-12.42,-37.32
325164.984000,-0.249,-0.48,0.741,39.83,-11.47,-35.22
325164.984000,-0.25,-0.461,0.767,41.32,-10.25,-32.35
325165.000000,-0.255,-0.441,0.796,44.5,-9.86,-28.96
325165.015000,-0.257,-0.433,0.806,47.09,-10.59,-25.27
325165.015000,-0.257,-0.43,0.808,47.21,-12.12,-22.13
325165.031000,-0.252,-0.434,0.803,45.01,-14.07,-20.05
325165.046000,-0.243,-0.43,0.793,41.66,-15.44,-18.25
325165.062000,-0.23,-0.428,0.779,37.51,-15.29,-16.51
325165.062000,-0.219,-0.424,0.776,33.3,-14.22,-14.8
325165.078000,-0.21,-0.413,0.777,29.33,-12.67,-13.03
325165.078000,-0.201,-0.402,0.791,25.82,-10.99,-10.5
325165.093000,-0.19,-0.401,0.812,24.2,-8.97,-7.48
325165.093000,-0.187,-0.402,0.838,24.87,-7.2,-5.04
325165.109000,-0.197,-0.387,0.86,26.22,-6.59,-2.62
325165.125000,-0.208,-0.388,0.866,26.55,-7.08,0.85
325165.125000,-0.212,-0.404,0.875,23.96,-7.66,3.72
325165.140000,-0.212,-0.417,0.88,19.5,-9.22,4.91
325165.156000,-0.21,-0.443,0.872,14.44,-11.32,5.98
325165.156000,-0.201,-0.467,0.852,9.61,-12.51,6.87
325165.171000,-0.186,-0.481,0.833,5.01,-12.3,6.84
325165.187000,-0.172,-0.489,0.827,-0.06,-11.75,5.86
325165.187000,-0.166,-0.498,0.83,-3.36,-10.86,5.1
325165.203000,-0.162,-0.49,0.832,-2.96,-9.7,5.4
325165.218000,-0.153,-0.483,0.828,-0.52,-8.42,7.02
325165.218000,-0.147,-0.482,0.833,0.58,-7.2,8.67
325165.218000,-0.155,-0.483,0.856,0.21,-6.26,9.86
325165.234000,-0.157,-0.498,0.872,1.07,-6.47,10.99
325165.250000,-0.157,-0.503,0.868,1.4,-7.54,10.93
325165.250000,-0.164,-0.504,0.869,-0.31,-8.55,10.96
325165.265000,-0.167,-0.524,0.873,-1.8,-8.73,11.66
325165.265000,-0.167,-0.537,0.882,-1.74,-8.42,11.87
325165.281000,-0.174,-0.544,0.891,-1.77,-8.45,11.87
325165.296000,-0.174,-0.56,0.892,-0.64,-8.82,12.54
325165.312000,-0.165,-0.561,0.879,0.15,-9.52,12.7
325165.328000,-0.156,-0.563,0.86,-1.34,-10.01,12.02
325165.343000,-0.151,-0.57,0.852,-3.81,-9.46,10.86
325165.343000,-0.153,-0.579,0.861,-5.62,-9.13,9.49
325165.343000,-0.156,-0.575,0.87,-6.1,-9.52,7.57
325165.359000,-0.155,-0.59,0.852,-5.43,-10.65,6.65
325165.375000,-0.162,-0.545,0.864,-4.94,-11.44,6.5
325165.390000,-0.16,-0.569,0.828,-4.0,-11.08,6.96
325165.390000,-0.156,-0.556,0.835,-8.12,-10.41,6.84
325165.406000,-0.148,-0.563,0.831,-10.93,-9.77,6.44
325165.406000,-0.134,-0.576,0.821,-12.79,-8.45,4.88
325165.421000,-0.154,-0.545,0.828,-12.45,-6.41,2.9
325165.437000,-0.156,-0.553,0.843,-11.47,-5.19,3.3
325165.437000,-0.154,-0.555,0.845,-9.98,-5.16,3.39
325165.453000,-0.154,-0.56,0.828,-8.55,-6.23,4.0
325165.468000,-0.149,-0.583,0.817,-7.51,-7.26,4.58
325165.468000,-0.146,-0.597,0.81,-5.98,-7.75,4.67
325165.484000,-0.137,-0.601,0.794,-3.57,-7.75,4.12
325165.484000,-0.127,-0.588,0.785,-1.31,-7.17,3.23
325165.500000,-0.123,-0.583,0.788,1.37,-6.16,2.56
325165.515000,-0.146,-0.582,0.778,5.25,-4.52,2.44
325165.515000,-0.101,-0.562,0.81,9.22,-0.85,1.74
325165.531000,-0.126,-0.503,0.816,13.06,-1.25,1.01
325165.546000,-0.15,-0.514,0.797,12.7,-0.4,1.56
325165.546000,-0.151,-0.492,0.817,8.61,1.71,1.95
325165.562000,-0.165,-0.486,0.828,3.88,2.29,2.38
325165.578000,-0.178,-0.514,0.856,0.76,1.95,2.32
325165.578000,-0.199,-0.527,0.872,1.4,0.46,2.72
325165.593000,-0.201,-0.542,0.855,5.46,-1.92,4.94
325165.609000,-0.193,-0.546,0.832,8.7,-3.51,7.23
325165.609000,-0.178,-0.561,0.805,9.46,-3.94,8.15
325165.625000,-0.161,-0.569,0.793,8.24,-2.72,7.29
325165.625000,-0.156,-0.563,0.794,7.35,-0.76,5.65
325165.640000,-0.151,-0.552,0.802,7.87,1.46,4.27
325165.656000,-0.152,-0.534,0.812,10.35,3.51,3.88
325165.656000,-0.162,-0.527,0.818,14.31,5.62,4.73
325165.671000,-0.171,-0.534,0.825,18.1,7.42,5.98
325165.671000,-0.176,-0.549,0.825,19.29,7.6,6.65
325165.687000,-0.175,-0.565,0.823,18.01,6.81,5.74
325165.703000,-0.176,-0.575,0.821,15.38,5.55,3.88
325165.718000,-0.178,-0.584,0.807,13.4,5.01,2.29
325165.718000,-0.177,-0.595,0.803,11.69,5.46,1.46
325165.734000,-0.174,-0.596,0.817,9.55,5.37,0.12
325165.734000,-0.174,-0.593,0.83,8.24,4.52,-0.89
325165.750000,-0.174,-0.589,0.853,9.46,4.27,-1.19
325165.750000,-0.172,-0.569,0.866,13.73,4.12,-0.85
325165.765000,-0.177,-0.552,0.887,19.23,4.7,0.18
325165.781000,-0.179,-0.54,0.893,23.96,5.43,1.56
325165.781000,-0.18,-0.525,0.893,18.46,5.68,-0.82
325165.796000,-0.184,-0.509,0.898,12.09,5.74,-3.6
325165.796000,-0.183,-0.501,0.901,6.2,5.92,-6.16
325165.812000,-0.184,-0.489,0.902,0.98,5.77,-7.97
325165.828000,-0.188,-0.489,0.9,-1.71,5.25,-8.3
325165.843000,-0.187,-0.491,0.904,-0.82,4.3,-7.57
325165.843000,-0.174,-0.482,0.89,1.31,3.2,-6.16
325165.859000,-0.163,-0.482,0.877,3.57,2.53,-4.91
325165.875000,-0.154,-0.471,0.866,5.31,2.69,-4.49
325165.875000,-0.147,-0.457,0.857,6.38,3.97,-4.06
325165.890000,-0.141,-0.439,0.844,5.16,5.86,-3.88
325165.906000,-0.142,-0.419,0.837,0.0,7.81,-4.06
325165.906000,-0.145,-0.417,0.852,-5.95,10.01,-3.97
325165.921000,-0.148,-0.419,0.888,-10.41,11.87,-4.03
325165.937000,-0.177,-0.409,0.874,-12.39,10.86,-3.05
325165.937000,-0.165,-0.425,0.893,-12.18,12.21,-0.49
325165.953000,-0.171,-0.434,0.861,-13.31,11.9,1.28
325165.953000,-0.162,-0.427,0.861,-16.48,12.94,2.87
325165.968000,-0.167,-0.451,0.858,-18.4,14.22,3.97
325165.984000,-0.17,-0.478,0.882,-18.74,15.93,4.24
325165.984000,-0.182,-0.51,0.891,-16.08,15.47,3.97
325166.000000,-0.19,-0.528,0.88,-13.09,12.91,2.44
325166.000000,-0.182,-0.545,0.857,-11.32,9.52,0.73
325166.015000,-0.178,-0.562,0.838,-8.55,7.02,-0.52
325166.031000,-0.186,-0.557,0.842,-5.43,6.59,-1.16
325166.046000,-0.186,-0.561,0.831,-0.89,6.01,-0.67
325166.046000,-0.188,-0.563,0.835,2.44,5.89,-0.03
325166.046000,-0.214,-0.548,0.892,5.19,6.04,1.31
325166.078000,-0.213,-0.562,0.866,11.54,3.45,4.43
325166.078000,-0.214,-0.535,0.877,10.8,4.43,4.94
325166.093000,-0.212,-0.532,0.884,7.9,3.14,3.78
325166.109000,-0.218,-0.52,0.893,3.05,1.37,1.98
325166.109000,-0.223,-0.519,0.905,-0.27,-0.09,0.37
325166.125000,-0.222,-0.505,0.907,-1.53,-1.74,-0.49
325166.125000,-0.209,-0.501,0.885,-0.89,-3.48,-0.31
325166.140000,-0.197,-0.496,0.869,-0.79,-4.79,0.31
325166.156000,-0.192,-0.503,0.853,-0.85,-5.58,0.79
325166.156000,-0.192,-0.504,0.85,-0.37,-5.31,0.85
325166.171000,-0.191,-0.501,0.847,1.43,-4.55,0.92
325166.187000,-0.188,-0.492,0.843,2.78,-3.6,1.53
325166.187000,-0.188,-0.492,0.842,1.37,-2.87,1.68
325166.203000,-0.194,-0.49,0.842,-1.71,-3.05,1.4
325166.218000,-0.202,-0.487,0.841,-4.55,-3.39,1.56
325166.218000,-0.203,-0.491,0.846,-6.5,-3.23,2.04
325166.234000,-0.204,-0.506,0.85,-7.02,-3.17,2.96
325166.250000,-0.203,-0.522,0.857,-5.58,-3.72,3.94
325166.250000,-0.198,-0.534,0.873,-1.37,-4.12,3.78
325166.265000,-0.196,-0.538,0.851,4.15,-5.68,2.23
325166.265000,-0.191,-0.494,0.833,6.84,-5.31,1.68
325166.281000,-0.188,-0.5,0.828,5.62,-4.67,2.35
325166.296000,-0.186,-0.497,0.834,2.5,-4.06,2.44
325166.296000,-0.199,-0.497,0.848,0.18,-3.45,1.83
325166.296000,-0.208,-0.493,0.862,-0.15,-2.29,1.71
325166.328000,-0.212,-0.486,0.878,0.09,-1.92,2.11
325166.328000,-0.212,-0.483,0.88,-0.92,-2.84,2.93
325166.343000,-0.207,-0.485,0.885,-2.84,-4.39,3.6
325166.343000,-0.21,-0.495,0.908,-3.54,-5.71,3.69
325166.359000,-0.207,-0.487,0.907,-2.81,-7.51,3.14
325166.375000,-0.2,-0.479,0.893,-2.32,-9.43,2.81
325166.390000,-0.198,-0.473,0.889,-2.81,-11.14,2.32
325166.390000,-0.195,-0.473,0.875,-3.63,-11.93,2.66
325166.406000,-0.188,-0.502,0.861,-3.88,-11.75,3.48
325166.406000,-0.187,-0.509,0.854,-3.97,-11.14,3.6
325166.421000,-0.186,-0.525,0.848,-4.09,-10.68,3.33
325166.437000,-0.189,-0.549,0.871,-4.3,-10.86,2.53
325166.437000,-0.198,-0.56,0.887,-3.66,-13.03,0.49
325166.453000,-0.205,-0.556,0.887,-1.16,-16.79,-1.25
325166.453000,-0.205,-0.555,0.878,2.9,-19.62,-1.98
325166.468000,-0.204,-0.541,0.863,6.87,-20.72,-2.26
325166.468000,-0.2,-0.531,0.865,9.19,-20.69,-1.25
325166.484000,-0.197,-0.527,0.867,9.8,-20.54,-0.27
325166.500000,-0.187,-0.518,0.866,8.15,-20.14,-0.18
325166.515000,-0.166,-0.514,0.841,5.95,-19.38,-0.7
325166.515000,-0.156,-0.517,0.842,1.25,-17.79,-3.08
325166.531000,-0.161,-0.523,0.874,-2.41,-15.75,-6.13
325166.546000,-0.173,-0.519,0.897,-1.46,-16.05,-8.12
325166.546000,-0.19,-0.512,0.887,2.29,-17.3,-7.57
325166.546000,-0.181,-0.513,0.86,5.86,-15.66,-4.79
325166.562000,-0.161,-0.517,0.859,6.87,-12.7,-1.71
325166.578000,-0.162,-0.522,0.855,5.55,-9.98,-0.31
325166.593000,-0.165,-0.535,0.861,3.23,-8.94,0.89
325166.609000,-0.178,-0.527,0.865,2.59,-8.12,2.72
325166.609000,-0.18,-0.534,0.87,2.56,-6.53,5.46
325166.625000,-0.196,-0.534,0.882,1.31,-6.44,7.78
325166.625000,-0.213,-0.522,0.887,0.79,-6.01,10.65
325166.640000,-0.224,-0.506,0.894,0.85,-4.82,14.62
325166.640000,-0.231,-0.485,0.91,0.4,-3.33,19.96
325166.640000,-0.224,-0.468,0.904,-0.79,-2.32,26.03
325166.671000,-0.201,-0.486,0.892,-4.03,-2.04,32.01
325166.687000,-0.176,-0.528,0.895,-6.65,-0.58,34.94
325166.687000,-0.166,-0.579,0.94,-5.86,1.34,32.62
325166.703000,-0.17,-0.571,0.949,0.55,1.74,25.21
325166.718000,-0.173,-0.529,0.934,6.2,0.85,17.03
325166.718000,-0.183,-0.505,0.957,5.22,-2.14,10.65
325166.734000,-0.195,-0.499,0.958,1.86,-7.72,6.29
325166.750000,-0.187,-0.479,0.918,-2.2,-13.98,3.85
325166.750000,-0.188,-0.474,0.921,-8.85,-18.25,2.9
325166.765000,-0.181,-0.498,0.947,-9.31,-20.39,3.88
325166.765000,-0.163,-0.474,0.926,-3.88,-22.25,4.7
325166.781000,-0.131,-0.455,0.848,0.03,-22.89,6.2
325166.796000,-0.102,-0.471,0.844,-2.66,-21.67,6.68
325166.812000,-0.094,-0.451,0.835,-4.67,-21.45,5.74
325166.812000,-0.081,-0.457,0.786,-6.81,-20.87,4.94
325166.828000,-0.071,-0.474,0.801,-11.35,-19.01,3.57
325166.828000,-0.064,-0.489,0.815,-10.35,-17.49,1.71
325166.843000,-0.064,-0.474,0.797,-6.35,-16.91,0.46
325166.843000,-0.063,-0.472,0.777,-3.27,-15.66,1.53
325166.859000,-0.054,-0.466,0.759,-2.14,-13.21,3.69
325166.875000,-0.051,-0.467,0.758,-3.63,-10.96,5.4
325166.875000,-0.063,-0.476,0.773,-4.88,-8.61,6.71
325166.890000,-0.075,-0.486,0.788,-3.66,-5.8,8.67
325166.906000,-0.085,-0.475,0.798,-0.79,-3.02,11.08
325166.906000,-0.092,-0.473,0.812,0.73,-0.21,13.37
325166.921000,-0.108,-0.463,0.82,0.06,2.29,14.95
325166.937000,-0.116,-0.47,0.852,-0.27,5.31,17.73
325166.937000,-0.121,-0.467,0.855,0.03,6.78,20.14
325166.953000,-0.131,-0.487,0.87,-1.71,8.06,21.76
325166.968000,-0.137,-0.528,0.905,-3.2,8.7,21.61
325166.968000,-0.15,-0.553,0.927,-3.02,7.26,18.89
325166.984000,-0.145,-0.549,0.912,-1.5,3.54,14.16
325167.000000,-0.151,-0.544,0.879,-1.89,0.24,9.64
325167.000000,-0.163,-0.539,0.873,-3.66,-1.56,8.36
325167.015000,-0.164,-0.545,0.873,-3.36,-2.47,9.86
325167.015000,-0.151,-0.543,0.851,-1.56,-3.17,10.9
325167.031000,-0.14,-0.531,0.828,-1.46,-3.36,10.62
325167.046000,-0.139,-0.513,0.813,-3.36,-2.84,9.89
325167.046000,-0.137,-0.508,0.825,-4.3,-1.28,10.13
325167.062000,-0.125,-0.508,0.836,-1.59,0.09,10.59
325167.078000,-0.12,-0.506,0.849,2.99,0.58,9.8
325167.078000,-0.133,-0.486,0.859,8.06,-0.12,8.06
325167.093000,-0.136,-0.476,0.807,11.75,-0.49,7.97
325167.093000,-0.136,-0.469,0.826,9.09,1.31,7.87
325167.109000,-0.144,-0.479,0.812,6.29,2.41,6.74
325167.125000,-0.151,-0.487,0.838,2.44,4.64,6.1
325167.140000,-0.158,-0.487,0.862,1.1,5.43,6.23
325167.140000,-0.15,-0.49,0.865,1.5,5.37,6.9
325167.156000,-0.152,-0.492,0.881,1.92,4.94,6.65
325167.156000,-0.155,-0.489,0.907,2.62,4.06,5.77
325167.171000,-0.148,-0.465,0.896,2.32,1.86,4.73
325167.187000,-0.147,-0.454,0.9,-0.34,0.27,4.49
325167.187000,-0.146,-0.44,0.892,-3.14,-0.18,4.85
325167.203000,-0.141,-0.426,0.892,-7.9,0.15,5.89
325167.218000,-0.136,-0.417,0.901,-13.06,0.24,7.78
325167.218000,-0.133,-0.419,0.893,-16.79,0.85,10.53
325167.234000,-0.121,-0.428,0.877,-20.51,2.32,12.79
325167.250000,-0.122,-0.452,0.888,-24.26,3.33,13.31
325167.250000,-0.136,-0.462,0.899,-24.78,3.6,12.79
325167.265000,-0.157,-0.454,0.895,-22.86,3.57,13.03
325167.265000,-0.167,-0.43,0.898,-22.0,3.36,15.38
325167.281000,-0.152,-0.462,0.914,-23.19,0.76,18.68
325167.281000,-0.137,-0.495,0.88,-22.71,-2.59,19.59
325167.296000,-0.119,-0.558,0.817,-23.93,-3.39,16.57
325167.312000,-0.15,-0.549,0.799,-27.04,0.15,11.66
325167.328000,-0.154,-0.602,0.837,-27.25,6.07,9.58
325167.328000,-0.166,-0.632,0.865,-25.85,8.85,7.54
325167.343000,-0.181,-0.646,0.891,-23.38,8.51,5.46
325167.359000,-0.183,-0.657,0.88,-19.99,5.89,4.03
325167.359000,-0.186,-0.651,0.853,-14.98,4.15,3.33
325167.375000,-0.19,-0.643,0.836,-15.53,5.13,3.2
325167.375000,-0.185,-0.627,0.823,-18.65,6.07,2.62
325167.390000,-0.175,-0.614,0.788,-24.96,8.39,1.46
325167.406000,-0.173,-0.599,0.783,-31.37,10.44,0.0
325167.421000,-0.18,-0.591,0.812,-35.1,10.25,-1.04
325167.421000,-0.191,-0.58,0.849,-36.26,9.55,-1.4
325167.421000,-0.2,-0.6,0.886,-33.33,8.21,-1.74
325167.437000,-0.198,-0.65,0.812,-24.99,5.25,-2.01
325167.453000,-0.205,-0.619,0.829,-12.18,6.53,-1.65
325167.468000,-0.221,-0.577,0.847,-2.93,6.99,-0.37
325167.468000,-0.214,-0.636,0.84,3.72,4.0,2.78
325167.484000,-0.209,-0.602,0.812,5.98,1.4,2.9
325167.484000,-0.209,-0.584,0.807,2.62,0.61,1.86
325167.500000,-0.207,-0.596,0.811,-2.69,-0.03,0.21
325167.515000,-0.209,-0.573,0.806,-7.14,-1.43,-2.84
325167.515000,-0.208,-0.579,0.808,-9.92,-2.5,-4.82
325167.531000,-0.214,-0.558,0.809,-8.45,-3.08,-5.13
325167.546000,-0.205,-0.551,0.802,-5.74,-2.35,-2.35
325167.562000,-0.196,-0.547,0.796,-4.7,-1.19,0.09
325167.562000,-0.177,-0.562,0.81,-2.87,0.21,1.4
325167.578000,-0.17,-0.51,0.794,1.16,1.74,1.13
325167.578000,-0.183,-0.497,0.796,-0.27,4.21,1.62
325167.593000,-0.203,-0.52,0.837,-1.28,4.88,2.87
325167.593000,-0.21,-0.529,0.857,-0.82,2.87,4.76
325167.609000,-0.219,-0.588,0.85,-2.56,-0.27,5.95
325167.625000,-0.221,-0.662,0.852,-1.53,-4.36,5.25
325167.625000,-0.203,-0.663,0.796,3.75,-6.74,3.97
325167.640000,-0.183,-0.718,0.752,7.48,-5.8,2.38
325167.640000,-0.164,-0.778,0.725,16.66,-3.39,0.06
325167.656000,-0.157,-0.582,0.654,24.54,3.54,-1.65
325167.671000,-0.14,-0.607,0.716,15.26,9.22,0.7
325167.687000,-0.16,-0.602,0.761,10.83,9.13,1.65
325167.703000,-0.165,-0.595,0.791,12.76,7.81,4.0
325167.703000,-0.169,-0.601,0.809,16.79,6.04,6.32
325167.718000,-0.177,-0.583,0.811,20.02,4.7,7.39
325167.718000,-0.177,-0.376,0.768,14.25,5.65,7.81
325167.734000,-0.185,-0.357,0.879,-18.4,9.0,11.02
325167.750000,-0.205,-0.571,0.986,-34.15,4.06,11.66
325167.750000,-0.219,-0.487,0.982,-24.41,4.39,8.88
325167.750000,-0.194,-0.558,0.934,-14.44,3.14,7.32
325167.765000,-0.176,-0.545,0.817,-8.64,2.69,2.9
325167.781000,-0.182,-0.61,0.817,-11.47,4.58,1.22
325167.781000,-0.191,-0.639,0.795,-9.31,5.65,0.67
325167.796000,-0.181,-0.742,0.786,1.46,6.9,1.34
325167.796000,-0.192,-0.751,0.756,19.38,7.45,-0.12
325167.828000,-0.196,-0.734,0.704,32.07,6.01,-1.43
325167.828000,-0.206,-0.623,0.671,34.0,6.04,-0.92
325167.843000,-0.221,-0.56,0.743,22.0,7.17,1.1
325167.859000,-0.245,-0.571,0.839,9.28,5.62,2.01
325167.859000,-0.265,-0.565,0.898,7.02,4.09,1.59
325167.875000,-0.261,-0.57,0.9,12.27,3.2,1.16
325167.890000,-0.255,-0.581,0.898,17.15,2.9,0.31
325167.890000,-0.246,-0.574,0.874,21.03,1.37,-1.07
325167.906000,-0.228,-0.545,0.83,23.16,0.09,-1.92
325167.906000,-0.204,-0.528,0.788,21.76,-0.46,-1.65
325167.921000,-0.197,-0.497,0.74,18.04,0.85,-0.03
325167.937000,-0.202,-0.528,0.761,10.9,3.45,1.92
325167.937000,-0.222,-0.553,0.835,1.43,3.91,0.95
325167.953000,-0.23,-0.538,0.843,-4.94,1.43,-1.31
325167.968000,-0.236,-0.557,0.859,-8.73,0.03,-1.92
325167.968000,-0.239,-0.577,0.887,-12.45,-0.52,-1.83
325167.984000,-0.234,-0.591,0.887,-13.89,-1.62,-2.14
325168.000000,-0.237,-0.596,0.914,-10.83,-2.26,-3.02
325168.000000,-0.24,-0.793,0.991,5.37,-6.44,-2.75
325168.015000,-0.25,-0.856,0.903,50.33,-12.94,-1.71
325168.015000,-0.216,-0.818,0.761,84.78,-14.86,0.34
325168.031000,-0.197,-0.725,0.679,87.16,-14.86,0.03
325168.046000,-0.199,-0.666,0.733,66.23,-13.55,-2.87
325168.046000,-0.194,-0.621,0.784,44.31,-13.0,-7.72
325168.062000,-0.19,-0.553,0.792,28.44,-9.31,-13.86
325168.078000,-0.178,-0.475,0.819,14.44,-3.66,-19.5
325168.078000,-0.199,-0.429,0.881,3.08,1.34,-21.15
325168.093000,-0.202,-0.416,0.94,-1.07,2.56,-19.26
325168.093000,-0.181,-0.365,0.875,-1.68,1.71,-16.97
325168.109000,-0.191,-0.369,0.92,-6.87,1.22,-14.53
325168.125000,-0.219,-0.396,1.011,-3.94,-1.89,-11.2
325168.125000,-0.238,-0.398,1.04,8.36,-8.76,-6.96
325168.140000,-0.232,-0.411,1.017,20.54,-15.81,-3.02
325168.156000,-0.204,-0.418,0.934,25.24,-20.51,-1.56
325168.156000,-0.195,-0.417,0.896,18.92,-20.94,-2.08
325168.171000,-0.188,-0.455,0.89,8.33,-19.41,-2.41
325168.171000,-0.176,-0.48,0.894,0.82,-17.52,-2.66
325168.187000,-0.169,-0.498,0.888,-3.78,-16.57,-2.66
325168.203000,-0.155,-0.519,0.886,-5.4,-17.33,-1.71
325168.218000,-0.144,-0.535,0.863,-2.26,-18.59,-0.21
325168.218000,-0.126,-0.554,0.831,3.66,-17.55,0.7
325168.218000,-0.113,-0.549,0.813,9.58,-15.44,-1.4
325168.234000,-0.11,-0.545,0.798,14.62,-13.25,-4.49
325168.250000,-0.102,-0.55,0.765,17.37,-11.44,-7.48
325168.250000,-0.105,-0.536,0.744,17.09,-7.54,-10.5
325168.265000,-0.111,-0.531,0.765,15.81,-2.2,-12.45
325168.265000,-0.116,-0.532,0.806,14.83,0.92,-14.44
325168.296000,-0.136,-0.518,0.855,14.83,0.61,-16.17
325168.296000,-0.145,-0.508,0.9,19.07,-1.65,-15.26
325168.312000,-0.144,-0.486,0.905,27.34,-4.76,-12.36
325168.328000,-0.13,-0.458,0.829,32.84,-6.74,-8.73
325168.328000,-0.115,-0.405,0.785,26.83,-3.88,-8.3
325168.343000,-0.106,-0.42,0.825,16.69,0.64,-8.42
325168.359000,-0.108,-0.41,0.828,10.5,4.33,-8.55
325168.359000,-0.117,-0.388,0.839,4.33,7.72,-9.03
325168.359000,-0.123,-0.381,0.856,-0.43,10.77,-8.12
325168.359000,-0.129,-0.357,0.865,-4.88,12.27,-6.01
325168.390000,-0.125,-0.373,0.887,-10.13,12.73,-4.0
325168.390000,-0.123,-0.382,0.88,-14.89,11.54,-3.6
325168.406000,-0.129,-0.404,0.877,-18.16,11.72,-3.3
325168.406000,-0.124,-0.461,0.889,-17.49,12.85,-3.88
325168.437000,-0.122,-0.472,0.879,-12.18,13.25,-6.56
325168.437000,-0.131,-0.462,0.85,-6.99,13.0,-8.58
325168.453000,-0.149,-0.446,0.743,-5.13,14.28,-7.45
325168.468000,-0.109,-0.447,0.762,-10.35,21.67,-4.0
325168.484000,-0.128,-0.429,0.85,-9.64,22.46,-1.77
325168.484000,-0.13,-0.421,0.745,-6.01,22.16,2.96
325168.484000,-0.116,-0.416,0.755,-7.05,26.15,7.84
325168.500000,-0.129,-0.464,0.801,-4.61,30.76,11.32
325168.515000,-0.123,-0.509,0.798,3.05,34.24,10.99
325168.531000,-0.144,-0.495,0.781,9.64,37.93,6.59
325168.531000,-0.18,-0.507,0.802,12.76,41.32,3.05
325168.546000,-0.208,-0.527,0.824,14.44,41.99,1.68
325168.546000,-0.228,-0.534,0.858,12.85,41.47,1.5
325168.562000,-0.258,-0.54,0.904,7.51,38.21,0.24
325168.578000,-0.291,-0.525,0.919,3.88,34.82,-1.34
325168.578000,-0.267,-0.489,0.902,0.27,29.21,-4.64
325168.593000,-0.264,-0.467,0.917,-5.19,25.64,-6.16
325168.593000,-0.267,-0.439,0.927,-7.42,24.14,-5.13
325168.609000,-0.254,-0.425,0.923,-6.38,24.23,-2.14
325168.625000,-0.235,-0.442,0.95,-4.03,24.57,-0.34
325168.625000,-0.255,-0.412,0.927,-1.56,24.6,-0.92
325168.640000,-0.268,-0.407,0.974,-3.54,25.88,-0.18
325168.656000,-0.277,-0.419,1.006,-6.56,22.31,-1.01
325168.656000,-0.291,-0.386,0.992,-10.1,16.79,-2.23
325168.671000,-0.3,-0.387,0.988,-15.99,13.21,-1.53
325168.687000,-0.302,-0.391,0.985,-21.09,10.56,0.37
325168.687000,-0.3,-0.382,0.971,-23.8,8.15,3.33
325168.703000,-0.287,-0.372,0.976,-24.54,6.26,7.78
325168.718000,-0.277,-0.369,0.969,-22.52,3.05,13.18
325168.718000,-0.257,-0.393,0.94,-19.71,-0.73,19.2
325168.734000,-0.234,-0.414,0.888,-17.76,-3.91,22.68
325168.750000,-0.232,-0.41,0.836,-18.07,-4.36,23.77
325168.750000,-0.253,-0.418,0.835,-19.68,-1.65,25.57
325168.750000,-0.276,-0.445,0.85,-20.2,1.83,27.92
325168.765000,-0.287,-0.508,0.838,-16.97,4.06,30.64
325168.781000,-0.337,-0.51,0.808,-9.4,8.97,32.59
325168.781000,-0.24,-0.75,0.858,-1.74,18.37,30.79
325168.796000,-0.299,-0.699,0.877,30.82,17.88,21.79
325168.812000,-0.306,-0.751,0.793,35.49,9.03,15.14
325168.812000,-0.28,-0.818,0.759,50.26,6.9,5.28
325168.828000,-0.317,-0.776,0.702,62.75,4.91,-3.51
325168.843000,-0.348,-0.547,0.73,60.82,8.18,-10.5
325168.859000,-0.342,-0.478,0.792,39.37,8.48,-9.7
325168.859000,-0.334,-0.479,0.868,16.63,8.45,-9.22
325168.875000,-0.333,-0.438,0.951,1.8,9.74,-11.75
325168.875000,-0.337,-0.392,1.003,-1.28,8.94,-12.21
325168.890000,-0.316,-0.371,0.998,3.14,6.78,-7.78
325168.890000,-0.3,-0.386,0.973,7.45,3.05,-2.69
325168.890000,-0.293,-0.408,0.94,10.68,-0.89,1.13
325168.921000,-0.284,-0.411,0.898,11.93,-4.09,4.46
325168.921000,-0.274,-0.432,0.831,10.07,-5.65,7.45
325168.921000,-0.263,-0.451,0.805,-7.63,-4.55,7.87
325168.953000,-0.254,-0.486,0.801,-14.37,-5.22,6.29
325168.968000,-0.267,-0.521,0.804,-16.66,-5.04,6.41
325168.968000,-0.265,-0.527,0.807,-13.73,-5.55,6.44
325168.984000,-0.242,-0.661,0.826,1.4,-4.46,1.1
325168.984000,-0.262,-0.602,0.738,13.67,-0.89,-2.59
325169.000000,-0.258,-0.619,0.683,13.82,3.54,-6.47
325169.015000,-0.257,-0.603,0.704,7.87,9.64,-11.17
325169.031000,-0.261,-0.6,0.729,3.51,13.31,-15.29
325169.031000,-0.271,-0.58,0.745,3.14,16.45,-18.1
325169.031000,-0.269,-0.565,0.782,4.82,18.89,-19.5
325169.046000,-0.271,-0.523,0.792,4.79,19.84,-21.94
325169.062000,-0.282,-0.483,0.82,1.37,20.6,-24.17
325169.062000,-0.299,-0.488,0.872,-1.77,20.72,-25.21
325169.078000,-0.313,-0.472,0.91,-0.46,20.02,-25.45
325169.093000,-0.309,-0.465,0.94,2.84,18.43,-25.24
325169.093000,-0.309,-0.47,0.964,7.08,15.99,-25.36
325169.109000,-0.311,-0.438,0.968,11.41,13.31,-24.78
325169.125000,-0.305,-0.439,0.97,14.31,11.02,-23.62
325169.125000,-0.295,-0.407,0.949,14.77,8.82,-22.4
325169.140000,-0.28,-0.421,0.922,10.41,7.69,-23.01
325169.156000,-0.291,-0.362,0.947,3.72,8.03,-24.35
325169.156000,-0.282,-0.419,0.957,0.64,6.9,-23.96
325169.171000,-0.281,-0.374,0.955,0.67,5.34,-24.26
325169.171000,-0.271,-0.37,0.945,2.69,3.63,-22.64
325169.187000,-0.264,-0.351,0.951,5.19,1.59,-20.57
325169.187000,-0.261,-0.33,0.969,8.51,-0.52,-18.49
325169.203000,-0.273,-0.296,0.944,13.15,-2.96,-15.9
325169.218000,-0.265,-0.267,0.901,9.49,-3.3,-12.85
325169.234000,-0.271,-0.227,0.923,-0.76,-2.2,-10.65
325169.234000,-0.269,-0.253,0.937,-10.53,-3.27,-8.27
325169.250000,-0.255,-0.366,0.907,-16.79,-4.21,-8.88
325169.265000,-0.262,-0.373,0.879,-18.22,-2.62,-12.73
325169.265000,-0.253,-0.423,0.847,-16.33,-0.61,-14.83
325169.281000,-0.239,-0.583,0.827,-11.2,1.07,-16.24
325169.281000,-0.315,-0.397,0.858,-3.66,-0.67,-18.77
325169.296000,-0.335,-0.295,0.83,7.57,-2.78,-9.86
325169.312000,-0.277,-0.512,0.807,5.04,-5.46,3.51
325169.328000,-0.283,-0.349,0.845,-0.18,-6.04,5.92
325169.328000,-0.26,-0.41,0.829,-2.23,-6.16,9.43
325169.328000,-0.27,-0.405,0.847,-6.9,-4.3,8.33
325169.359000,-0.285,-0.373,0.864,-8.36,-2.17,7.39
325169.359000,-0.296,-0.39,0.86,-10.8,-1.77,8.33
325169.375000,-0.31,-0.405,0.847,-13.58,-2.56,11.17
325169.375000,-0.301,-0.476,0.834,-16.11,-3.23,15.05
325169.390000,-0.287,-0.532,0.835,-14.77,-4.0,16.45
325169.390000,-0.276,-0.579,0.81,-9.19,-4.88,14.44
325169.406000,-0.266,-0.569,0.718,-4.88,-3.75,10.5
325169.421000,-0.271,-0.56,0.809,-3.69,0.79,6.47
325169.421000,-0.302,-0.494,0.797,3.45,-0.06,5.46
325169.437000,-0.289,-0.497,0.784,1.71,-0.79,8.18
325169.453000,-0.28,-0.504,0.8,-2.93,-0.64,9.4
325169.453000,-0.264,-0.561,0.784,-6.47,0.52,7.81
325169.468000,-0.281,-0.501,0.816,-8.03,2.38,4.61
325169.484000,-0.278,-0.553,0.826,-5.92,1.83,4.0
325169.484000,-0.284,-0.59,0.835,-2.66,-0.06,2.53
325169.500000,-0.281,-0.608,0.855,2.84,-2.47,0.31
325169.515000,-0.281,-0.624,0.867,10.47,-5.86,-3.3
325169.531000,-0.281,-0.632,0.887,17.12,-10.56,-7.63
325169.531000,-0.302,-0.619,0.871,24.69,-16.05,-11.47
325169.531000,-0.287,-0.558,0.787,26.55,-15.99,-12.51
325169.546000,-0.261,-0.538,0.785,19.56,-12.36,-14.34
325169.562000,-0.25,-0.522,0.789,11.63,-8.06,-16.88
325169.562000,-0.253,-0.494,0.81,4.79,-2.56,-19.26
325169.578000,-0.248,-0.48,0.828,0.4,2.32,-21.61
325169.578000,-0.239,-0.464,0.855,-1.77,5.98,-24.63
325169.593000,-0.241,-0.441,0.896,-2.93,6.78,-27.16
325169.609000,-0.247,-0.424,0.916,-3.11,4.06,-29.15
325169.625000,-0.25,-0.4,0.903,-1.34,0.18,-30.52
325169.625000,-0.248,-0.384,0.889,0.92,-2.81,-30.4
325169.640000,-0.255,-0.37,0.886,2.96,-4.46,-28.72
325169.656000,-0.265,-0.354,0.882,6.38,-5.83,-24.66
325169.656000,-0.271,-0.362,0.883,10.9,-6.26,-17.73
325169.671000,-0.262,-0.354,0.87,15.81,-5.19,-10.5
325169.687000,-0.254,-0.343,0.84,17.37,-1.71,-4.03
325169.687000,-0.236,-0.357,0.813,13.25,3.63,0.46
325169.703000,-0.229,-0.381,0.815,5.1,9.09,2.17
325169.703000,-0.241,-0.418,0.849,-1.74,12.79,2.78
325169.718000,-0.256,-0.451,0.891,-3.08,14.1,3.45
325169.734000,-0.26,-0.475,0.905,1.13,12.63,4.49
325169.734000,-0.256,-0.484,0.882,6.2,9.28,5.25
325169.750000,-0.25,-0.489,0.856,8.61,6.93,6.01
325169.750000,-0.244,-0.496,0.832,7.87,6.44,6.23
325169.765000,-0.234,-0.498,0.824,4.91,7.87,5.13
325169.781000,-0.227,-0.494,0.827,2.87,9.77,3.14
325169.781000,-0.232,-0.48,0.842,2.81,11.51,1.62
325169.796000,-0.23,-0.476,0.842,4.91,13.4,1.83
325169.812000,-0.227,-0.489,0.855,8.21,15.5,1.98
325169.812000,-0.23,-0.479,0.864,12.76,16.66,0.64
325169.828000,-0.242,-0.473,0.863,15.78,17.06,-0.79
325169.828000,-0.254,-0.485,0.863,16.63,17.21,-1.34
325169.859000,-0.262,-0.509,0.887,16.97,17.21,-1.77
325169.859000,-0.261,-0.53,0.91,20.94,16.79,-4.06
325169.859000,-0.264,-0.509,0.892,26.76,14.86,-8.09
325169.875000,-0.269,-0.494,0.86,28.47,13.21,-10.65
325169.890000,-0.265,-0.485,0.843,25.79,12.73,-11.75
325169.906000,-0.26,-0.476,0.84,21.33,12.94,-12.48
325169.906000,-0.258,-0.475,0.84,17.85,13.73,-12.94
325169.921000,-0.262,-0.484,0.859,16.69,14.31,-13.18
325169.921000,-0.269,-0.482,0.869,19.47,14.44,-13.82
325169.937000,-0.272,-0.472,0.864,23.44,14.4,-14.37
325169.953000,-0.275,-0.479,0.871,25.3,13.95,-15.32
325169.953000,-0.281,-0.463,0.863,24.9,12.42,-17.12
325169.968000,-0.283,-0.451,0.841,22.0,11.26,-18.43
325169.984000,-0.274,-0.442,0.829,18.19,11.6,-19.29
325169.984000,-0.279,-0.435,0.832,14.5,12.15,-19.9
325170.000000,-0.289,-0.441,0.857,12.88,12.67,-19.84
325170.015000,-0.283,-0.434,0.876,15.11,11.81,-20.23
325170.015000,-0.289,-0.431,0.874,17.76,11.35,-21.0
325170.031000,-0.291,-0.423,0.868,19.2,10.83,-21.39
325170.046000,-0.28,-0.4,0.845,20.17,10.5,-21.94
325170.046000,-0.282,-0.389,0.833,18.8,12.05,-21.7
325170.062000,-0.277,-0.375,0.845,17.37,14.62,-21.0
325170.078000,-0.279,-0.348,0.843,15.23,16.05,-20.72
325170.078000,-0.285,-0.334,0.852,11.75,17.18,-19.96
325170.078000,-0.293,-0.328,0.871,9.4,18.28,-18.4
325170.093000,-0.3,-0.313,0.878,9.19,18.31,-16.72
325170.109000,-0.305,-0.299,0.876,9.19,17.52,-14.13
325170.125000,-0.309,-0.287,0.865,7.78,16.97,-11.05
325170.125000,-0.325,-0.279,0.866,4.15,17.21,-7.69
325170.125000,-0.341,-0.281,0.894,0.09,18.52,-4.24
325170.156000,-0.35,-0.274,0.9,-3.27,19.01,-1.34
325170.156000,-0.354,-0.271,0.891,-8.0,18.71,1.86
325170.171000,-0.357,-0.269,0.881,-13.46,18.16,5.28
325170.171000,-0.357,-0.267,0.865,-18.56,17.85,9.25
325170.171000,-0.353,-0.267,0.842,-23.77,18.46,13.37
325170.203000,-0.352,-0.275,0.835,-29.02,20.2,17.4
325170.218000,-0.353,-0.284,0.84,-33.02,22.03,21.36
325170.218000,-0.349,-0.292,0.829,-36.26,22.92,24.96
325170.234000,-0.347,-0.324,0.826,-39.83,23.44,28.96
325170.250000,-0.344,-0.363,0.831,-41.2,24.11,31.62
325170.250000,-0.345,-0.398,0.825,-39.98,23.96,31.86
325170.265000,-0.351,-0.447,0.818,-38.09,23.68,31.13
325170.265000,-0.357,-0.478,0.813,-35.55,23.74,29.39
325170.281000,-0.352,-0.487,0.785,-32.72,24.6,26.92
325170.296000,-0.343,-0.495,0.755,-32.35,26.67,24.05
325170.296000,-0.34,-0.489,0.737,-35.13,29.05,21.36
325170.312000,-0.339,-0.487,0.728,-39.34,31.22,19.62
325170.328000,-0.349,-0.491,0.719,-42.7,33.69,19.35
325170.328000,-0.364,-0.527,0.739,-43.34,36.5,21.27
325170.343000,-0.364,-0.561,0.755,-39.52,38.7,23.04
325170.359000,-0.367,-0.614,0.784,-33.05,39.46,21.79
325170.359000,-0.38,-0.631,0.814,-23.04,38.76,16.66
325170.359000,-0.392,-0.628,0.793,-11.9,36.56,10.8
325170.375000,-0.407,-0.63,0.768,-4.52,35.07,5.62
325170.390000,-0.434,-0.608,0.773,-1.07,35.0,2.44
325170.390000,-0.448,-0.598,0.789,2.29,35.98,1.74
325170.406000,-0.448,-0.589,0.791,5.62,36.59,1.16
325170.421000,-0.45,-0.582,0.795,6.23,36.44,-0.31
325170.437000,-0.459,-0.583,0.809,4.76,35.83,-2.66
325170.437000,-0.464,-0.57,0.815,4.12,35.04,-5.46
325170.453000,-0.462,-0.559,0.811,3.11,34.0,-7.69
325170.453000,-0.466,-0.551,0.819,1.59,32.81,-9.37
325170.468000,-0.476,-0.544,0.843,2.08,32.14,-10.32
325170.468000,-0.483,-0.528,0.856,6.41,31.53,-9.95
325170.500000,-0.483,-0.507,0.854,11.6,30.55,-8.88
325170.500000,-0.476,-0.486,0.836,13.64,29.6,-8.03
325170.515000,-0.469,-0.471,0.82,4.94,27.86,-8.27
325170.531000,-0.472,-0.473,0.826,-1.43,26.25,-9.37
325170.531000,-0.478,-0.485,0.838,-6.93,23.71,-11.51
325170.546000,-0.482,-0.496,0.851,-9.49,20.78,-14.4
325170.546000,-0.49,-0.5,0.859,-9.43,18.34,-16.48
325170.562000,-0.513,-0.483,0.842,-8.7,17.21,-16.75
325170.578000,-0.512,-0.473,0.838,-8.12,16.66,-15.41
325170.578000,-0.503,-0.473,0.833,-7.93,16.05,-13.28
325170.593000,-0.498,-0.485,0.834,-7.35,14.89,-11.63
325170.609000,-0.506,-0.496,0.851,-4.49,13.55,-10.56
325170.609000,-0.501,-0.485,0.852,1.89,12.63,-9.98
325170.625000,-0.495,-0.475,0.838,6.65,10.07,-8.18
325170.625000,-0.493,-0.458,0.828,8.33,8.27,-7.72
325170.640000,-0.486,-0.452,0.816,5.34,6.23,-7.45
325170.656000,-0.481,-0.445,0.806,0.21,4.52,-7.87
325170.656000,-0.483,-0.439,0.8,-4.52,3.6,-8.09
325170.671000,-0.484,-0.446,0.795,-8.42,3.94,-7.63
325170.687000,-0.484,-0.451,0.809,-11.26,4.52,-7.57
325170.687000,-0.487,-0.453,0.811,-12.27,4.03,-7.42
325170.703000,-0.488,-0.457,0.795,-13.0,2.84,-6.2
325170.703000,-0.491,-0.464,0.793,-14.44,2.17,-5.4
325170.718000,-0.496,-0.486,0.801,-16.85,1.22,-5.68
325170.734000,-0.498,-0.505,0.814,-17.98,-0.95,-5.49
325170.750000,-0.499,-0.508,0.808,-15.96,-2.9,-6.23
325170.750000,-0.499,-0.513,0.801,-12.82,-4.36,-6.1
325170.750000,-0.496,-0.512,0.798,-8.58,-5.4,-5.19
325170.765000,-0.491,-0.507,0.787,-4.15,-6.65,-3.6
325170.781000,-0.481,-0.512,0.769,-1.22,-7.69,-2.32
325170.781000,-0.48,-0.513,0.759,0.03,-8.27,-1.92
325170.796000,-0.483,-0.514,0.756,1.1,-8.21,-1.59
325170.812000,-0.482,-0.516,0.754,2.14,-7.6,-1.37
325170.812000,-0.479,-0.513,0.751,2.26,-7.57,-1.34
325170.828000,-0.483,-0.513,0.75,1.43,-7.84,-1.5
325170.843000,-0.486,-0.518,0.741,0.09,-8.45,-1.46
325170.859000,-0.483,-0.532,0.744,-1.1,-8.91,-1.56
325170.859000,-0.48,-0.539,0.759,0.0,-9.46,-2.17
325170.859000,-0.478,-0.533,0.763,3.72,-10.35,-3.11
325170.890000,-0.474,-0.517,0.746,8.06,-10.96,-3.23
325170.890000,-0.468,-0.5,0.731,9.89,-10.47,-2.41
325170.890000,-0.457,-0.495,0.725,8.91,-9.58,-1.86
325170.906000,-0.452,-0.496,0.723,6.2,-8.91,-1.71
325170.921000,-0.451,-0.498,0.725,3.63,-8.15,-1.83
325170.937000,-0.45,-0.503,0.726,2.29,-7.42,-1.65
325170.937000,-0.451,-0.505,0.726,1.28,-6.99,-1.4
325170.953000,-0.445,-0.513,0.726,0.15,-6.74,-1.4
325170.968000,-0.445,-0.521,0.731,-0.12,-6.56,-1.98
325170.968000,-0.448,-0.522,0.732,0.4,-6.78,-2.66
325170.968000,-0.45,-0.52,0.725,1.62,-7.02,-3.08
325171.000000,-0.453,-0.522,0.728,2.66,-6.71,-2.62
325171.000000,-0.454,-0.523,0.737,4.33,-6.07,-2.29
325171.015000,-0.458,-0.521,0.741,6.13,-5.68,-2.04
325171.015000,-0.459,-0.518,0.74,7.14,-5.55,-1.46
325171.031000,-0.456,-0.52,0.737,6.74,-5.55,-1.46
325171.046000,-0.458,-0.522,0.743,5.31,-5.46,-1.86
325171.046000,-0.457,-0.52,0.753,4.82,-5.95,-2.38
325171.062000,-0.451,-0.514,0.757,5.74,-6.84,-2.84
325171.062000,-0.444,-0.502,0.757,7.26,-7.78,-3.05
325171.078000,-0.437,-0.485,0.745,8.48,-8.48,-3.14
325171.093000,-0.433,-0.48,0.737,7.63,-8.18,-3.23
325171.109000,-0.428,-0.481,0.738,5.07,-7.26,-3.75
325171.109000,-0.429,-0.488,0.758,2.47,-6.44,-4.64
325171.109000,-0.429,-0.484,0.776,2.47,-6.47,-5.43
325171.125000,-0.43,-0.476,0.773,4.61,-7.54,-5.55
325171.140000,-0.427,-0.478,0.771,5.98,-8.15,-4.64
325171.140000,-0.425,-0.478,0.786,7.45,-8.33,-4.15
325171.156000,-0.427,-0.472,0.804,10.41,-8.73,-3.08
325171.171000,-0.43,-0.466,0.798,13.34,-10.07,-2.08
325171.171000,-0.424,-0.466,0.786,12.79,-10.65,-1.13
325171.187000,-0.421,-0.462,0.785,8.79,-10.47,-1.65
325171.203000,-0.427,-0.465,0.797,4.36,-9.95,-2.72
325171.203000,-0.435,-0.457,0.808,2.35,-8.73,-3.11
325171.218000,-0.438,-0.445,0.817,2.69,-6.78,-1.65
325171.234000,-0.434,-0.443,0.822,3.6,-5.19,0.98
325171.234000,-0.436,-0.447,0.837,4.09,-4.64,3.45
325171.250000,-0.434,-0.453,0.849,4.39,-5.07,4.7
325171.265000,-0.44,-0.456,0.848,4.94,-6.41,5.16
325171.265000,-0.441,-0.457,0.847,5.43,-7.81,5.4
325171.281000,-0.432,-0.446,0.828,5.74,-8.91,5.34
325171.281000,-0.426,-0.448,0.819,3.75,-9.86,5.71
325171.296000,-0.423,-0.444,0.812,1.22,-10.04,5.68
325171.312000,-0.418,-0.435,0.808,-0.34,-9.98,5.92
325171.312000,-0.414,-0.421,0.8,-0.85,-10.22,6.99
325171.328000,-0.411,-0.412,0.782,-1.22,-10.44,9.0
325171.328000,-0.403,-0.41,0.781,-1.46,-9.89,10.5
325171.343000,-0.399,-0.397,0.778,-0.34,-9.13,11.08
325171.359000,-0.407,-0.38,0.768,1.25,-8.42,12.36
325171.359000,-0.409,-0.384,0.761,1.4,-7.11,14.62
325171.375000,-0.408,-0.384,0.759,-0.4,-5.83,16.72
325171.375000,-0.418,-0.392,0.767,-2.93,-4.79,18.56
325171.406000,-0.425,-0.411,0.777,-6.26,-4.36,20.02
325171.406000,-0.424,-0.428,0.783,-9.22,-5.22,20.78
325171.421000,-0.425,-0.441,0.791,-10.07,-6.41,20.97
325171.421000,-0.428,-0.446,0.791,-8.61,-6.65,21.15
325171.437000,-0.429,-0.452,0.792,-6.26,-6.41,21.64
325171.437000,-0.432,-0.454,0.787,-4.52,-6.35,22.34
325171.453000,-0.432,-0.462,0.786,-4.21,-5.95,22.77
325171.453000,-0.434,-0.476,0.79,-4.3,-5.49,22.68
325171.484000,-0.441,-0.47,0.798,-4.18,-5.52,21.88
325171.484000,-0.445,-0.46,0.787,-4.33,-5.58,21.27
325171.484000,-0.446,-0.455,0.783,-5.8,-5.01,21.24
325171.515000,-0.448,-0.457,0.793,-7.6,-4.52,21.24
325171.515000,-0.453,-0.469,0.801,-8.45,-5.07,21.12
325171.531000,-0.454,-0.471,0.801,-7.69,-6.16,21.52
325171.546000,-0.45,-0.473,0.784,-6.74,-7.11,22.4
325171.546000,-0.447,-0.482,0.775,-7.11,-7.51,23.04
325171.562000,-0.444,-0.49,0.778,-7.63,-6.99,23.01
325171.562000,-0.441,-0.495,0.783,-7.29,-6.59,22.74
325171.578000,-0.438,-0.496,0.776,-6.62,-7.14,22.49
325171.593000,-0.43,-0.505,0.757,-6.93,-7.48,22.89
325171.609000,-0.425,-0.518,0.745,-8.03,-6.81,22.98
325171.609000,-0.422,-0.533,0.747,-9.16,-5.49,22.03
325171.625000,-0.422,-0.544,0.747,-9.98,-4.3,20.51
325171.625000,-0.426,-0.551,0.756,-10.47,-3.33,18.59
325171.640000,-0.427,-0.553,0.763,-9.83,-2.62,16.42
325171.640000,-0.428,-0.548,0.766,-8.64,-2.26,14.86
325171.656000,-0.427,-0.547,0.763,-7.48,-2.29,14.16
325171.671000,-0.426,-0.557,0.766,-6.23,-2.08,13.4
325171.687000,-0.429,-0.556,0.77,-4.73,-1.83,11.81
325171.687000,-0.433,-0.553,0.78,-3.3,-1.53,10.56
325171.703000,-0.436,-0.558,0.796,-0.73,-1.5,9.67
325171.703000,-0.432,-0.543,0.793,2.29,-2.08,8.45
325171.718000,-0.429,-0.526,0.784,3.2,-2.84,7.39
325171.734000,-0.431,-0.513,0.775,1.59,-3.14,6.35
325171.734000,-0.435,-0.512,0.772,-1.22,-2.35,5.49
325171.750000,-0.432,-0.522,0.778,-3.57,-0.95,4.91
325171.765000,-0.429,-0.528,0.781,-4.88,-0.21,3.57
325171.765000,-0.437,-0.53,0.792,-4.97,0.09,2.17
325171.781000,-0.439,-0.534,0.801,-3.51,0.58,1.92
325171.796000,-0.436,-0.538,0.807,-1.71,0.61,1.28
325171.796000,-0.436,-0.536,0.815,0.31,0.34,-0.43
325171.796000,-0.44,-0.527,0.818,2.04,-0.58,-2.32
325171.812000,-0.441,-0.509,0.811,2.38,-1.77,-3.45
325171.828000,-0.441,-0.495,0.8,0.64,-2.78,-4.0
325171.828000,-0.438,-0.496,0.798,-2.38,-3.17,-4.64
325171.843000,-0.432,-0.5,0.796,-4.36,-3.36,-5.58
325171.859000,-0.435,-0.498,0.797,-5.31,-3.23,-6.71
325171.859000,-0.435,-0.493,0.789,-5.25,-3.23,-7.11
325171.875000,-0.437,-0.489,0.786,-5.01,-3.14,-6.93
325171.890000,-0.434,-0.49,0.787,-4.24,-2.59,-6.65
325171.906000,-0.434,-0.486,0.781,-3.27,-2.26,-7.17
325171.906000,-0.432,-0.476,0.776,-2.78,-1.98,-7.97
325171.921000,-0.433,-0.466,0.77,-2.99,-1.89,-7.78
325171.937000,-0.438,-0.464,0.769,-3.81,-1.4,-7.11
325171.937000,-0.437,-0.475,0.771,-5.16,-0.7,-6.62
325171.953000,-0.435,-0.485,0.781,-6.2,-0.52,-7.42
325171.968000,-0.44,-0.479,0.784,-6.04,-1.43,-8.61
325171.968000,-0.442,-0.471,0.777,-5.43,-2.29,-8.7
325171.984000,-0.436,-0.473,0.773,-4.52,-2.23,-7.51
325171.984000,-0.428,-0.478,0.773,-3.23,-1.92,-6.59
325172.000000,-0.429,-0.48,0.773,-1.46,-1.77,-6.65
325172.015000,-0.431,-0.474,0.771,0.34,-1.53,-6.29
325172.031000,-0.431,-0.475,0.769,1.19,-0.95,-5.22
325172.031000,-0.426,-0.481,0.772,0.85,-0.55,-4.55
325172.046000,-0.423,-0.48,0.774,0.18,-0.49,-4.97
325172.046000,-0.423,-0.479,0.775,-0.58,-0.43,-5.55
325172.062000,-0.427,-0.487,0.783,-1.07,-0.18,-5.65
325172.078000,-0.43,-0.489,0.8,-0.03,-0.21,-5.74
325172.078000,-0.43,-0.485,0.8,2.26,-1.95,-5.22
325172.093000,-0.429,-0.489,0.79,1.98,-2.17,-4.43
325172.109000,-0.422,-0.496,0.785,1.62,-1.92,-4.85
325172.109000,-0.413,-0.499,0.784,1.37,-1.56,-5.71
325172.125000,-0.415,-0.5,0.783,1.13,-1.07,-5.86
325172.125000,-0.413,-0.504,0.787,0.98,-0.49,-5.62
325172.140000,-0.414,-0.506,0.798,1.56,-0.03,-5.68
325172.156000,-0.416,-0.503,0.795,2.5,-0.15,-5.55
325172.156000,-0.414,-0.502,0.787,2.41,-0.31,-5.49
325172.171000,-0.412,-0.5,0.787,1.13,-0.27,-5.83
325172.187000,-0.416,-0.494,0.79,-0.46,-0.06,-6.35
325172.187000,-0.415,-0.492,0.79,-1.62,-0.27,-6.44
325172.203000,-0.411,-0.489,0.787,-2.44,-0.43,-6.1
325172.203000,-0.41,-0.489,0.787,-2.72,-0.73,-5.37
325172.218000,-0.411,-0.492,0.782,-2.81,-0.76,-5.1
325172.234000,-0.41,-0.506,0.784,-2.56,-0.46,-5.16
325172.234000,-0.409,-0.509,0.794,-1.46,-0.18,-6.29
325172.250000,-0.416,-0.497,0.796,0.55,-0.61,-7.75
325172.265000,-0.42,-0.484,0.782,1.5,-1.43,-8.15
325172.265000,-0.418,-0.478,0.771,0.64,-1.89,-7.42
325172.281000,-0.414,-0.481,0.771,-0.95,-1.65,-6.68
325172.281000,-0.416,-0.482,0.776,-1.43,-0.98,-6.44
325172.296000,-0.419,-0.481,0.782,-0.7,-0.18,-6.26
325172.312000,-0.416,-0.473,0.782,0.34,-0.03,-5.92
325172.328000,-0.413,-0.472,0.78,0.31,-0.61,-5.25
325172.328000,-0.415,-0.473,0.776,-0.12,-0.79,-4.73
325172.343000,-0.41,-0.474,0.777,-0.46,-0.61,-4.27
325172.343000,-0.407,-0.479,0.771,-0.61,-0.52,-4.33
325172.359000,-0.411,-0.478,0.773,-0.64,-0.21,-4.52
325172.359000,-0.41,-0.479,0.779,-0.18,0.21,-4.49
325172.375000,-0.409,-0.472,0.782,0.4,0.09,-4.24
325172.390000,-0.41,-0.464,0.78,0.79,-0.34,-4.09
325172.406000,-0.407,-0.462,0.771,0.67,-0.12,-3.36
325172.406000,-0.407,-0.464,0.769,0.09,0.76,-2.47
325172.421000,-0.41,-0.471,0.777,-0.73,1.59,-1.65
325172.437000,-0.411,-0.48,0.787,-0.85,2.23,-0.85
325172.437000,-0.41,-0.48,0.794,-0.21,2.2,-0.64
325172.453000,-0.406,-0.478,0.793,0.27,1.5,-0.55
325172.468000,-0.404,-0.476,0.785,0.37,0.89,-0.15
325172.468000,-0.398,-0.481,0.786,0.15,1.16,0.09
325172.484000,-0.398,-0.485,0.79,0.49,1.25,-0.15
325172.484000,-0.402,-0.491,0.789,1.16,1.31,0.09
325172.500000,-0.398,-0.497,0.787,1.71,1.34,0.55
325172.515000,-0.393,-0.497,0.786,1.31,1.34,0.49
325172.515000,-0.392,-0.498,0.785,0.21,1.56,-0.06
325172.531000,-0.396,-0.498,0.79,-0.85,1.95,-0.27
325172.546000,-0.402,-0.499,0.798,-1.22,2.23,0.0
325172.562000,-0.407,-0.504,0.806,-1.1,2.14,0.4
325172.562000,-0.411,-0.509,0.811,-0.52,1.5,0.73
325172.578000,-0.414,-0.519,0.81,0.06,0.82,0.98
325172.578000,-0.412,-0.525,0.812,0.64,0.34,0.09
325172.593000,-0.412,-0.52,0.808,0.95,-0.46,-1.01
325172.609000,-0.409,-0.519,0.799,0.85,-1.07,-1.37
325172.609000,-0.405,-0.514,0.792,0.15,-1.4,-1.65
325172.625000,-0.403,-0.512,0.787,-0.4,-1.28,-2.11
325172.640000,-0.399,-0.505,0.782,-0.52,-0.61,-2.47
325172.640000,-0.401,-0.498,0.781,-1.22,0.15,-2.62
325172.656000,-0.402,-0.499,0.785,-2.29,0.61,-2.29
325172.656000,-0.405,-0.507,0.791,-2.56,0.95,-2.17
325172.671000,-0.409,-0.513,0.792,-2.14,0.85,-2.29
325172.687000,-0.404,-0.515,0.776,-2.62,0.79,-2.96
325172.687000,-0.409,-0.517,0.791,-5.07,1.13,-4.64
325172.703000,-0.416,-0.508,0.809,-4.43,0.67,-4.94
325172.718000,-0.417,-0.503,0.801,-1.43,0.15,-4.0
325172.718000,-0.407,-0.498,0.796,0.82,-0.24,-3.3
325172.718000,-0.406,-0.486,0.788,1.01,-0.82,-3.45
325172.734000,-0.406,-0.48,0.779,-0.09,-1.13,-3.45
325172.750000,-0.408,-0.48,0.781,-1.62,-0.85,-3.02
325172.750000,-0.411,-0.489,0.793,-2.41,-0.73,-2.44
325172.765000,-0.413,-0.489,0.797,-2.23,-1.34,-2.38
325172.781000,-0.41,-0.495,0.784,-1.37,-2.23,-1.83
325172.781000,-0.406,-0.495,0.774,-1.22,-2.11,-1.74
325172.796000,-0.402,-0.495,0.775,-1.95,-1.43,-2.01
325172.812000,-0.405,-0.495,0.774,-2.23,-0.98,-2.23
325172.828000,-0.41,-0.491,0.775,-3.05,-0.79,-2.17
325172.828000,-0.407,-0.492,0.776,-4.09,-0.67,-1.77
325172.828000,-0.407,-0.494,0.771,-4.43,-0.73,-1.46
325172.843000,-0.404,-0.499,0.766,-4.61,-0.31,-1.1
325172.859000,-0.404,-0.502,0.767,-4.03,0.64,-1.28
325172.859000,-0.404,-0.506,0.774,-3.11,1.56,-1.46
325172.875000,-0.4,-0.506,0.777,-1.34,2.17,-1.71
325172.875000,-0.406,-0.502,0.772,0.89,1.74,-1.8
325172.890000,-0.405,-0.506,0.77,3.75,1.62,-0.73
325172.906000,-0.397,-0.501,0.76,5.58,1.56,0.09
325172.906000,-0.397,-0.507,0.758,5.25,1.71,0.55
325172.921000,-0.4,-0.511,0.764,4.52,1.98,0.67
325172.937000,-0.401,-0.513,0.771,4.09,2.53,0.89
325172.937000,-0.402,-0.516,0.778,3.39,2.84,0.55
325172.968000,-0.408,-0.517,0.79,2.38,2.75,0.27
325172.968000,-0.408,-0.518,0.792,1.53,2.2,0.15
325172.984000,-0.408,-0.518,0.789,0.64,1.77,0.03
325173.000000,-0.406,-0.526,0.796,-0.21,1.4,0.12
325173.000000,-0.404,-0.527,0.791,-0.37,0.49,-0.12
325173.015000,-0.404,-0.524,0.788,-0.31,-0.03,-0.4
325173.015000,-0.401,-0.528,0.785,-0.03,0.15,-0.49
325173.031000,-0.397,-0.526,0.783,0.06,0.46,-1.1
325173.046000,-0.399,-0.524,0.784,0.0,0.7,-1.86
325173.046000,-0.402,-0.522,0.789,0.34,0.79,-2.01
325173.062000,-0.402,-0.514,0.789,0.92,0.61,-1.98
325173.078000,-0.398,-0.511,0.785,1.28,0.67,-1.89
325173.093000,-0.398,-0.51,0.784,0.98,0.95,-1.83
325173.093000,-0.402,-0.51,0.793,0.55,1.46,-2.01
325173.093000,-0.403,-0.503,0.795,0.95,1.53,-2.44
325173.109000,-0.408,-0.495,0.797,1.31,1.13,-2.32
325173.125000,-0.408,-0.491,0.798,1.56,0.73,-1.53
325173.140000,-0.406,-0.493,0.794,1.1,0.37,-0.79
325173.140000,-0.406,-0.496,0.797,0.15,-0.03,-0.85
325173.156000,-0.404,-0.5,0.8,-0.18,-0.52,-1.04
325173.156000,-0.403,-0.499,0.796,0.03,-1.16,-1.13
325173.171000,-0.404,-0.497,0.79,0.49,-1.5,-1.01
325173.187000,-0.402,-0.498,0.785,0.89,-1.28,-0.52
325173.187000,-0.397,-0.5,0.784,0.79,-0.7,-0.64
325173.203000,-0.402,-0.5,0.789,0.24,-0.52,-0.79
325173.203000,-0.403,-0.5,0.79,-0.21,-0.61,-0.55
325173.218000,-0.398,-0.501,0.781,-0.27,-0.82,-0.18
325173.234000,-0.397,-0.505,0.777,-0.46,-0.49,-0.24
325173.234000,-0.401,-0.506,0.776,-0.7,0.09,-0.7
325173.250000,-0.408,-0.505,0.78,-0.67,0.49,-0.61
325173.250000,-0.407,-0.51,0.786,-0.09,0.64,-0.09
325173.265000,-0.406,-0.511,0.786,0.73,0.58,-0.18
325173.281000,-0.406,-0.506,0.787,1.01,0.06,-0.43
325173.296000,-0.401,-0.514,0.787,0.85,-0.58,-0.55
325173.296000,-0.396,-0.507,0.777,0.98,-1.31,-1.68
325173.312000,-0.392,-0.497,0.767,1.07,-1.59,-2.2
325173.312000,-0.389,-0.491,0.757,0.73,-1.16,-1.71
325173.328000,-0.389,-0.494,0.76,-0.43,0.0,-0.76
325173.343000,-0.389,-0.503,0.767,-0.98,1.25,0.06
325173.343000,-0.39,-0.51,0.772,-0.67,2.04,0.49
325173.359000,-0.394,-0.516,0.78,-0.37,2.56,0.7
325173.375000,-0.396,-0.519,0.787,-0.06,2.5,0.55
325173.375000,-0.399,-0.519,0.787,-0.31,2.01,0.03
325173.390000,-0.403,-0.522,0.791,-0.79,1.68,-0.43
325173.390000,-0.402,-0.521,0.796,-0.52,1.31,-1.28
325173.406000,-0.402,-0.518,0.794,0.18,1.13,-1.56
325173.421000,-0.402,-0.519,0.795,0.43,0.67,-1.46
325173.421000,-0.394,-0.514,0.789,0.76,0.52,-1.31
325173.437000,-0.388,-0.512,0.781,0.79,0.46,-1.28
325173.453000,-0.386,-0.511,0.777,0.12,0.61,-1.5
325173.468000,-0.387,-0.512,0.776,-0.4,1.19,-1.43
325173.468000,-0.388,-0.519,0.779,-0.58,1.71,-1.25
325173.484000,-0.386,-0.523,0.782,-0.24,2.08,-1.43
325173.484000,-0.39,-0.525,0.787,0.27,2.41,-1.59
325173.500000,-0.396,-0.531,0.79,0.67,2.56,-1.89
325173.515000,-0.398,-0.531,0.793,0.7,2.56,-2.29
325173.531000,-0.399,-0.531,0.797,0.37,2.35,-2.81
325173.531000,-0.399,-0.533,0.803,0.52,1.68,-3.48
325173.546000,-0.4,-0.527,0.801,1.19,0.89,-4.12
325173.546000,-0.396,-0.525,0.802,2.04,0.43,-4.24
325173.562000,-0.393,-0.515,0.796,2.87,-0.03,-4.33
325173.578000,-0.39,-0.515,0.785,2.78,0.06,-4.0
325173.578000,-0.388,-0.517,0.786,1.77,0.76,-4.0
325173.593000,-0.387,-0.521,0.789,0.76,1.19,-4.55
325173.609000,-0.392,-0.522,0.793,0.31,1.19,-5.28
325173.609000,-0.395,-0.52,0.795,0.7,0.95,-5.62
325173.625000,-0.395,-0.52,0.795,1.43,0.76,-5.43
325173.625000,-0.395,-0.521,0.793,2.32,0.21,-5.31
325173.640000,-0.396,-0.517,0.794,3.11,-0.15,-5.22
325173.656000,-0.396,-0.51,0.798,2.35,-1.01,-5.25
325173.656000,-0.396,-0.508,0.794,1.56,-1.4,-5.28
325173.671000,-0.39,-0.512,0.791,1.31,-1.74,-5.8
325173.671000,-0.388,-0.502,0.787,1.1,-1.89,-5.28
325173.687000,-0.392,-0.501,0.781,0.82,-1.4,-4.33
325173.687000,-0.385,-0.5,0.78,0.55,-0.79,-3.97
325173.718000,-0.389,-0.497,0.78,0.55,-0.46,-3.78
325173.718000,-0.39,-0.495,0.78,0.76,0.34,-3.39
325173.734000,-0.39,-0.492,0.789,1.01,1.1,-3.2
325173.734000,-0.394,-0.489,0.798,1.4,0.95,-3.45
325173.750000,-0.397,-0.48,0.794,1.37,0.31,-3.42
325173.750000,-0.395,-0.477,0.786,0.24,-0.06,-2.23
325173.765000,-0.393,-0.478,0.788,-1.46,0.03,-1.4
325173.781000,-0.393,-0.484,0.798,-2.84,0.06,-0.73
325173.796000,-0.391,-0.486,0.804,-2.72,-0.89,-0.06
325173.796000,-0.386,-0.484,0.795,-1.92,-2.26,0.79
325173.812000,-0.384,-0.492,0.785,-1.65,-2.78,1.95
325173.812000,-0.377,-0.501,0.777,-1.53,-2.29,2.17
325173.828000,-0.375,-0.501,0.77,-1.8,-1.28,1.71
325173.843000,-0.378,-0.508,0.778,-2.62,-0.15,1.19
325173.843000,-0.381,-0.506,0.788,-2.32,0.24,0.67
325173.859000,-0.384,-0.502,0.789,-1.25,-0.06,0.73
325173.875000,-0.384,-0.504,0.782,-0.21,-0.24,1.53
325173.875000,-0.379,-0.507,0.777,0.06,0.18,1.98
325173.875000,-0.383,-0.509,0.781,-0.4,0.92,1.86
325173.906000,-0.389,-0.518,0.793,-0.92,1.22,1.83
325173.921000,-0.39,-0.523,0.804,0.18,1.07,1.68
325173.921000,-0.395,-0.519,0.806,1.77,0.18,1.5
325173.937000,-0.396,-0.523,0.797,1.95,-0.37,1.89
325173.937000,-0.394,-0.526,0.789,0.49,-0.43,1.89
325173.953000,-0.397,-0.539,0.785,-1.62,-0.09,1.62
325173.953000,-0.401,-0.55,0.787,-2.62,-0.24,0.95
325173.968000,-0.399,-0.551,0.778,-2.35,-1.22,0.18
325173.984000,-0.387,-0.553,0.758,-1.5,-2.47,-0.06
325173.984000,-0.368,-0.551,0.733,-0.31,-2.96,-0.43
325174.000000,-0.357,-0.546,0.716,1.1,-1.62,-0.92
325174.015000,-0.35,-0.542,0.718,2.26,0.82,-1.28
325174.015000,-0.346,-0.55,0.72,2.81,3.27,-1.59
325174.031000,-0.346,-0.553,0.737,3.63,5.92,-2.41
325174.046000,-0.357,-0.548,0.753,4.33,7.84,-3.51
325174.046000,-0.373,-0.555,0.767,4.36,9.03,-3.94
325174.062000,-0.387,-0.56,0.791,3.97,9.64,-4.58
325174.078000,-0.399,-0.562,0.812,3.63,8.88,-5.74
325174.078000,-0.412,-0.56,0.82,3.66,7.26,-6.96
325174.078000,-0.422,-0.548,0.826,3.6,5.74,-7.69
325174.093000,-0.422,-0.537,0.826,3.85,4.61,-7.84
325174.109000,-0.416,-0.529,0.826,3.54,3.72,-8.42
325174.109000,-0.41,-0.516,0.825,3.17,2.69,-9.52
325174.125000,-0.407,-0.497,0.819,3.05,1.5,-10.1
325174.125000,-0.4,-0.482,0.808,2.47,0.46,-9.55
325174.140000,-0.396,-0.471,0.804,1.86,0.18,-8.76
325174.156000,-0.396,-0.473,0.804,1.46,0.4,-7.75
325174.171000,-0.395,-0.477,0.81,1.86,0.64,-7.17
325174.171000,-0.4,-0.474,0.818,2.99,0.64,-6.81
325174.187000,-0.401,-0.468,0.816,3.85,-0.03,-5.86
325174.203000,-0.401,-0.466,0.82,4.33,-0.43,-4.76
325174.203000,-0.402,-0.467,0.823,4.58,-0.82,-4.39
325174.203000,-0.404,-0.467,0.822,3.85,-1.5,-4.82
325174.218000,-0.416,-0.471,0.83,2.9,-2.44,-4.85
325174.234000,-0.42,-0.474,0.828,3.02,-3.39,-4.27
325174.234000,-0.423,-0.477,0.825,3.45,-4.64,-3.39
325174.250000,-0.416,-0.492,0.808,3.85,-6.26,-2.78
325174.281000,-0.405,-0.49,0.789,4.67,-7.35,-2.78
325174.281000,-0.396,-0.487,0.771,5.58,-7.72,-2.84
325174.296000,-0.384,-0.477,0.75,5.95,-7.72,-2.66
325174.296000,-0.379,-0.477,0.737,5.46,-7.39,-2.2
325174.312000,-0.377,-0.477,0.736,5.4,-6.35,-1.56
325174.312000,-0.376,-0.472,0.735,6.38,-4.79,-0.79
325174.328000,-0.373,-0.473,0.729,6.93,-3.3,0.4
325174.343000,-0.375,-0.481,0.726,6.26,-1.65,1.5
325174.359000,-0.376,-0.488,0.734,5.13,-0.12,2.11
325174.359000,-0.381,-0.495,0.737,4.39,1.1,2.32
325174.375000,-0.387,-0.502,0.743,3.48,2.14,2.9
325174.375000,-0.392,-0.514,0.753,2.59,2.78,3.42
325174.390000,-0.391,-0.527,0.764,2.26,3.3,3.02
325174.406000,-0.392,-0.53,0.767,2.44,3.54,2.23
325174.406000,-0.394,-0.527,0.767,2.59,3.66,1.62
325174.421000,-0.391,-0.522,0.774,2.01,3.91,0.89
325174.437000,-0.397,-0.516,0.777,1.98,4.15,0.37
325174.437000,-0.398,-0.509,0.78,2.35,4.58,0.37
325174.453000,-0.402,-0.5,0.789,2.26,4.97,0.67
325174.453000,-0.407,-0.497,0.797,1.77,5.13,1.04
325174.468000,-0.41,-0.496,0.798,1.34,4.97,1.16
325174.468000,-0.41,-0.502,0.794,0.27,4.67,1.5
325174.484000,-0.406,-0.502,0.798,-1.04,4.03,1.59
325174.500000,-0.401,-0.5,0.797,-0.82,4.0,1.31
325174.515000,-0.398,-0.498,0.791,0.06,4.18,1.04
325174.515000,-0.392,-0.505,0.79,0.18,4.27,1.25
325174.531000,-0.382,-0.498,0.788,0.67,4.03,0.98
325174.531000,-0.373,-0.494,0.779,1.56,4.12,0.73
325174.546000,-0.37,-0.488,0.767,1.77,5.01,0.89
325174.546000,-0.365,-0.492,0.77,0.85,6.38,1.53
325174.562000,-0.359,-0.501,0.776,-0.09,7.29,2.23
325174.578000,-0.356,-0.514,0.777,-0.37,7.63,2.59
325174.578000,-0.351,-0.526,0.784,-0.12,8.18,2.29
325174.609000,-0.35,-0.527,0.786,0.64,8.42,1.37
325174.609000,-0.351,-0.534,0.789,1.16,8.73,0.61
325174.625000,-0.353,-0.54,0.805,1.62,9.46,-0.31
325174.625000,-0.358,-0.542,0.822,2.47,9.64,-1.4
325174.640000,-0.365,-0.539,0.83,3.72,9.03,-2.2
325174.656000,-0.371,-0.537,0.832,4.21,8.64,-2.08
325174.656000,-0.372,-0.537,0.846,4.03,8.76,-1.71
325174.671000,-0.373,-0.536,0.85,3.88,8.45,-1.8
325174.671000,-0.377,-0.536,0.849,1.89,7.6,-2.26
325174.687000,-0.381,-0.541,0.856,-1.04,6.78,-2.78
325174.687000,-0.384,-0.549,0.866,-2.87,5.62,-3.17
325174.703000,-0.386,-0.558,0.872,-3.17,4.3,-3.91
325174.718000,-0.391,-0.558,0.869,-2.5,2.66,-4.7
325174.734000,-0.386,-0.555,0.86,-1.98,0.95,-5.43
325174.734000,-0.382,-0.552,0.856,-2.62,-0.46,-6.2
325174.734000,-0.38,-0.553,0.85,-3.3,-1.43,-6.9
325174.750000,-0.379,-0.557,0.846,-2.96,-1.95,-7.66
325174.765000,-0.379,-0.565,0.842,-1.74,-2.35,-8.33
325174.765000,-0.379,-0.572,0.838,-0.46,-2.81,-9.4
325174.796000,-0.38,-0.567,0.833,0.03,-3.2,-11.05
325174.812000,-0.384,-0.562,0.83,0.24,-3.66,-12.45
325174.812000,-0.387,-0.558,0.825,0.67,-3.85,-13.12
325174.812000,-0.388,-0.553,0.818,1.1,-3.91,-13.31
325174.828000,-0.39,-0.56,0.815,1.4,-3.75,-13.61
325174.828000,-0.39,-0.569,0.812,1.4,-3.72,-14.71
325174.859000,-0.39,-0.571,0.811,1.13,-4.06,-16.42
325174.859000,-0.389,-0.578,0.798,0.73,-4.67,-17.79
325174.875000,-0.385,-0.589,0.789,-0.03,-4.97,-19.26
325174.875000,-0.376,-0.6,0.778,-0.64,-5.46,-21.3
325174.890000,-0.371,-0.617,0.758,-0.61,-5.19,-23.1
325174.906000,-0.368,-0.622,0.747,-0.55,-3.39,-24.66
325174.906000,-0.368,-0.631,0.757,-0.49,-1.16,-26.31
325174.921000,-0.367,-0.649,0.767,0.85,0.76,-27.92
325174.937000,-0.368,-0.659,0.78,3.39,1.56,-30.09
325174.937000,-0.364,-0.655,0.781,6.84,1.34,-33.69
325174.953000,-0.364,-0.635,0.76,7.48,1.07,-38.33
325174.968000,-0.372,-0.618,0.775,4.97,2.11,-42.66
325174.968000,-0.38,-0.589,0.788,4.46,2.72,-45.08
325174.984000,-0.385,-0.572,0.801,5.19,2.81,-45.72
325175.000000,-0.384,-0.552,0.799,6.71,1.98,-45.08
325175.000000,-0.379,-0.543,0.787,7.69,1.13,-43.82
325175.015000,-0.37,-0.528,0.778,7.81,1.22,-43.03
325175.015000,-0.365,-0.509,0.773,7.2,2.01,-43.0
325175.031000,-0.363,-0.496,0.772,5.55,2.47,-42.66
325175.046000,-0.358,-0.486,0.767,4.12,2.66,-41.38
325175.046000,-0.355,-0.485,0.759,2.75,3.05,-39.89
325175.062000,-0.35,-0.49,0.752,1.01,4.12,-38.45
325175.078000,-0.342,-0.505,0.757,-1.34,5.19,-36.96
325175.078000,-0.338,-0.513,0.766,-3.14,5.04,-36.71
325175.093000,-0.338,-0.507,0.771,-3.36,4.24,-36.87
325175.109000,-0.332,-0.494,0.765,-2.29,3.17,-36.77
325175.109000,-0.328,-0.489,0.748,-1.59,2.81,-35.98
325175.109000,-0.327,-0.489,0.74,-1.53,4.0,-34.76
325175.140000,-0.324,-0.494,0.737,-2.26,5.89,-33.72
325175.140000,-0.324,-0.511,0.752,-3.36,7.42,-32.87
325175.140000,-0.326,-0.521,0.776,-3.17,7.84,-33.02
325175.156000,-0.327,-0.519,0.788,-1.25,6.71,-33.57
325175.171000,-0.331,-0.513,0.792,2.01,4.97,-33.39
325175.171000,-0.329,-0.5,0.788,5.49,3.85,-31.8
325175.187000,-0.321,-0.492,0.78,7.69,3.27,-29.36
325175.187000,-0.322,-0.497,0.781,7.81,3.45,-27.07
325175.203000,-0.315,-0.515,0.782,7.08,3.45,-24.93
325175.203000,-0.303,-0.535,0.768,0.55,4.0,-25.39
325175.234000,-0.297,-0.559,0.756,-7.57,4.67,-28.08
325175.234000,-0.298,-0.575,0.759,-16.17,5.74,-30.67
325175.250000,-0.304,-0.6,0.765,-23.56,7.35,-32.5
325175.265000,-0.309,-0.637,0.775,-30.06,8.27,-33.63
325175.281000,-0.31,-0.747,0.793,-35.55,8.36,-33.81
325175.281000,-0.303,-0.806,0.797,-38.36,8.58,-34.21
325175.281000,-0.298,-0.848,0.783,-38.0,10.07,-35.95
325175.312000,-0.283,-0.894,0.774,-39.64,12.85,-39.95
325175.312000,-0.287,-0.938,0.786,-43.09,16.39,-48.65
325175.328000,-0.307,-0.98,0.798,-47.27,19.56,-59.6
325175.328000,-0.319,-1.028,0.84,-52.74,21.91,-71.11
325175.343000,-0.335,-1.042,0.877,-56.61,20.72,-83.01
325175.359000,-0.343,-1.037,0.892,-56.86,17.3,-93.23
325175.359000,-0.331,-1.028,0.885,-53.62,12.73,-100.07
325175.375000,-0.302,-0.992,0.859,-48.52,8.03,-104.8
325175.390000,-0.283,-0.96,0.83,-43.43,4.21,-107.18
325175.390000,-0.257,-0.928,0.799,-38.48,1.43,-107.09
325175.406000,-0.244,-0.904,0.77,-35.13,-0.24,-105.38
325175.406000,-0.231,-0.883,0.737,-35.1,0.4,-103.79
325175.421000,-0.183,-0.858,0.714,-39.98,2.78,-104.1
325175.437000,-0.144,-0.841,0.698,-49.2,4.67,-108.22
325175.437000,-0.141,-0.814,0.702,-59.82,5.8,-115.48
325175.453000,-0.145,-0.788,0.712,-69.22,7.42,-121.95
325175.468000,-0.138,-0.75,0.727,-74.95,8.51,-125.61
325175.468000,-0.134,-0.714,0.733,-76.45,8.24,-127.51
325175.484000,-0.14,-0.695,0.739,-74.8,7.14,-126.68
325175.484000,-0.14,-0.67,0.742,-70.13,6.65,-124.06
325175.500000,-0.127,-0.658,0.748,-64.09,4.94,-120.67
325175.515000,-0.118,-0.637,0.735,-57.68,1.22,-118.41
325175.515000,-0.127,-0.618,0.717,-53.1,-2.99,-115.33
325175.531000,-0.131,-0.628,0.684,-49.87,-5.77,-110.48
325175.546000,-0.099,-0.627,0.66,-49.13,-6.71,-105.41
325175.546000,-0.065,-0.61,0.636,-51.45,-8.51,-102.76
325175.562000,-0.048,-0.608,0.624,-54.45,-10.71,-100.74
325175.562000,-0.04,-0.603,0.606,-55.02,-12.73,-96.93
325175.578000,-0.046,-0.607,0.568,-52.25,-13.43,-89.79
325175.578000,-0.033,-0.632,0.564,-47.88,-11.17,-79.84
325175.593000,0.008,-0.641,0.576,-41.87,-9.64,-71.9
325175.609000,0.039,-0.64,0.572,-35.46,-11.47,-67.96
325175.625000,0.063,-0.644,0.547,-29.66,-14.31,-66.13
325175.625000,0.075,-0.642,0.515,-25.36,-15.66,-65.07
325175.640000,0.092,-0.632,0.501,-21.42,-14.1,-63.51
325175.656000,0.1,-0.619,0.485,-16.94,-11.57,-60.21
325175.671000,0.118,-0.619,0.48,-14.22,-7.78,-55.21
325175.671000,0.136,-0.619,0.484,-13.12,-3.81,-50.72
325175.687000,0.155,-0.624,0.464,-14.44,0.21,-47.55
325175.687000,0.177,-0.637,0.439,-21.09,5.22,-46.33
325175.703000,0.182,-0.658,0.453,-31.98,11.26,-47.58
325175.718000,0.166,-0.691,0.501,-43.06,15.66,-49.44
325175.718000,0.157,-0.741,0.553,-50.66,16.97,-51.06
325175.718000,0.154,-0.767,0.595,-50.57,15.81,-51.88
325175.750000,0.154,-0.781,0.609,-44.31,13.12,-49.81
325175.750000,0.163,-0.79,0.62,-34.61,10.5,-44.8
325175.750000,0.183,-0.79,0.607,-24.38,7.35,-38.67
325175.765000,0.206,-0.792,0.556,-17.88,3.85,-32.59
325175.781000,0.242,-0.797,0.509,-20.75,3.2,-29.15
325175.796000,0.259,-0.822,0.486,-31.83,4.85,-29.57
325175.812000,0.265,-0.853,0.494,-45.11,7.48,-31.92
325175.812000,0.295,-0.882,0.474,-57.01,10.38,-34.91
325175.828000,0.34,-0.894,0.401,-70.07,14.19,-39.61
325175.828000,0.362,-0.894,0.3,-91.49,22.37,-47.76
325175.843000,0.364,-0.952,0.285,-124.85,36.16,-56.76
325175.859000,0.352,-0.996,0.358,-155.0,48.98,-64.88
325175.859000,0.322,-1.039,0.444,-168.49,56.64,-70.53
325175.875000,0.325,-1.084,0.515,-165.75,58.78,-72.79
325175.890000,0.305,-1.1,0.519,-154.18,54.9,-74.37
325175.890000,0.304,-1.107,0.533,-143.1,47.49,-74.19
325175.906000,0.305,-1.106,0.552,-128.67,35.98,-73.4
325175.906000,0.304,-1.088,0.502,-113.07,20.66,-71.72
325175.921000,0.337,-1.063,0.438,-100.8,6.41,-69.64
325175.937000,0.379,-1.023,0.332,-94.58,-4.58,-70.28
325175.937000,0.397,-0.99,0.202,-102.08,-9.25,-74.68
325175.953000,0.417,-0.984,0.202,-119.33,-7.05,-79.74
325175.968000,0.422,-0.964,0.241,-131.78,-8.12,-85.02
325175.968000,0.405,-0.938,0.256,-134.16,-14.22,-87.44
325175.984000,0.403,-0.915,0.281,-126.19,-23.19,-84.57
325176.000000,0.416,-0.881,0.273,-106.14,-33.39,-78.62
325176.000000,0.418,-0.835,0.232,-80.57,-42.36,-70.41
325176.015000,0.422,-0.799,0.173,-53.83,-48.13,-59.82
325176.031000,0.439,-0.771,0.086,-31.43,-49.78,-49.01
325176.031000,0.461,-0.776,0.005,-15.47,-46.21,-39.52
325176.046000,0.484,-0.778,-0.054,-6.13,-38.97,-34.27
325176.046000,0.496,-0.751,-0.079,-5.55,-30.85,-32.65
325176.062000,0.507,-0.738,-0.064,-6.99,-22.28,-33.23
325176.078000,0.478,-0.731,-0.025,-6.56,-15.53,-34.91
325176.078000,0.453,-0.72,0.04,-3.05,-11.78,-34.27
325176.093000,0.44,-0.701,0.074,4.88,-11.63,-31.22
325176.093000,0.434,-0.67,0.061,13.98,-12.33,-27.28
325176.109000,0.436,-0.646,0.047,18.52,-11.29,-23.59
325176.125000,0.44,-0.624,0.044,18.1,-9.4,-19.96
325176.125000,0.436,-0.61,0.049,14.68,-7.75,-16.45
325176.140000,0.429,-0.612,0.066,10.56,-5.95,-12.3
325176.156000,0.436,-0.612,0.099,8.03,-4.55,-7.84
325176.156000,0.438,-0.611,0.143,7.78,-4.88,-3.39
325176.171000,0.437,-0.603,0.189,10.1,-7.29,0.76
325176.187000,0.419,-0.592,0.205,15.53,-10.86,5.8
325176.187000,0.403,-0.582,0.21,20.48,-15.14,13.03
325176.203000,0.415,-0.581,0.223,24.41,-19.38,21.18
325176.218000,0.421,-0.576,0.224,27.71,-23.93,28.99
325176.218000,0.425,-0.578,0.223,29.05,-28.69,35.98
325176.234000,0.428,-0.576,0.234,29.57,-32.5,42.02
325176.234000,0.436,-0.568,0.266,32.35,-34.52,47.82
325176.250000,0.447,-0.555,0.306,39.49,-35.0,53.53
325176.265000,0.455,-0.515,0.371,50.75,-34.09,58.99
325176.265000,0.439,-0.453,0.481,67.38,-33.23,64.73
325176.281000,0.383,-0.393,0.545,89.51,-35.43,72.48
325176.296000,0.298,-0.349,0.559,107.03,-40.41,84.11
325176.296000,0.233,-0.333,0.604,114.66,-46.85,99.73
325176.312000,0.189,-0.303,0.66,115.97,-56.43,116.06
325176.328000,0.137,-0.274,0.676,113.65,-70.16,130.95
325176.328000,0.061,-0.281,0.617,107.85,-86.03,146.79
325176.343000,0.006,-0.33,0.555,98.82,-99.19,165.17
325176.359000,-0.039,-0.41,0.537,93.36,-106.36,181.8
325176.359000,-0.111,-0.487,0.538,96.1,-109.23,195.35
325176.375000,-0.194,-0.553,0.519,103.46,-110.78,207.34
325176.390000,-0.248,-0.587,0.488,108.8,-113.35,217.41
325176.390000,-0.308,-0.607,0.468,107.64,-117.95,224.37
325176.406000,-0.386,-0.624,0.439,93.05,-125.83,229.29
325176.421000,-0.479,-0.681,0.363,69.0,-136.48,233.1
325176.421000,-0.526,-0.811,0.283,42.63,-144.02,240.58
325176.437000,-0.516,-0.959,0.211,18.19,-146.61,246.89
325176.437000,-0.522,-1.073,0.164,1.13,-144.72,245.55
325176.453000,-0.483,-1.17,0.109,-8.51,-137.27,240.33
325176.453000,-0.474,-1.241,0.105,-9.49,-127.14,229.68
325176.468000,-0.496,-1.295,0.111,0.95,-117.92,218.12
325176.484000,-0.493,-1.33,0.124,20.66,-102.42,206.82
325176.484000,-0.514,-1.332,0.152,40.68,-86.28,195.9
325176.500000,-0.546,-1.344,0.124,45.75,-76.24,185.43
325176.515000,-0.555,-1.367,0.036,28.29,-73.67,174.81
325176.515000,-0.542,-1.425,-0.037,-2.9,-72.08,163.21
325176.531000,-0.507,-1.498,-0.086,-36.68,-66.96,148.29
325176.531000,-0.472,-1.541,-0.122,-64.46,-59.63,130.19
325176.562000,-0.462,-1.602,-0.102,-77.73,-48.65,112.77
325176.562000,-0.462,-1.657,-0.037,-73.03,-37.75,98.18
325176.578000,-0.443,-1.648,0.011,-53.01,-31.07,85.63
325176.593000,-0.425,-1.586,0.025,-27.07,-28.32,74.34
325176.593000,-0.406,-1.521,0.03,-3.45,-26.83,64.88
325176.609000,-0.394,-1.428,0.017,14.5,-26.52,57.01
325176.609000,-0.379,-1.342,-0.01,24.78,-26.12,52.13
325176.625000,-0.357,-1.28,-0.031,29.02,-22.68,49.17
325176.640000,-0.336,-1.229,-0.048,28.26,-15.99,46.75
325176.640000,-0.319,-1.191,-0.048,22.03,-8.73,43.49
325176.656000,-0.304,-1.171,-0.028,12.27,-2.81,39.64
325176.656000,-0.304,-1.163,0.001,3.97,1.71,35.0
325176.671000,-0.323,-1.153,0.036,-1.07,5.55,30.34
325176.687000,-0.329,-1.141,0.068,-3.02,8.45,26.06
325176.687000,-0.335,-1.14,0.099,-1.89,10.07,20.36
325176.703000,-0.351,-1.114,0.116,2.23,11.02,14.07
325176.718000,-0.359,-1.072,0.133,6.04,11.2,9.7
325176.718000,-0.364,-1.043,0.16,8.73,11.69,7.26
325176.734000,-0.37,-1.034,0.203,12.7,12.45,6.38
325176.750000,-0.375,-1.026,0.253,18.59,12.63,4.88
325176.750000,-0.384,-0.996,0.279,26.73,11.17,1.95
325176.765000,-0.4,-0.962,0.284,33.57,9.49,-0.73
325176.765000,-0.399,-0.928,0.293,36.16,8.45,-1.95
325176.781000,-0.4,-0.9,0.298,34.97,7.97,-1.98
325176.796000,-0.405,-0.877,0.291,21.58,10.47,0.85
325176.796000,-0.4,-0.862,0.297,14.25,11.78,2.56
325176.812000,-0.39,-0.848,0.311,8.03,13.31,3.97
325176.828000,-0.384,-0.835,0.329,3.51,14.89,5.89
325176.843000,-0.38,-0.829,0.332,0.67,16.88,8.18
325176.843000,-0.377,-0.825,0.335,-0.85,18.4,10.22
325176.843000,-0.373,-0.849,0.4,-0.18,18.4,11.08
325176.859000,-0.37,-0.859,0.41,3.3,15.75,9.86
325176.875000,-0.374,-0.841,0.395,7.54,12.76,8.39
325176.890000,-0.376,-0.835,0.371,10.68,11.05,8.76
325176.890000,-0.373,-0.833,0.36,11.63,11.35,10.16
325176.906000,-0.368,-0.831,0.364,11.05,12.54,11.41
325176.906000,-0.362,-0.823,0.373,9.25,13.4,12.21
325176.921000,-0.362,-0.818,0.369,7.39,13.7,13.15
325176.937000,-0.367,-0.829,0.366,4.79,14.07,14.47
325176.937000,-0.373,-0.842,0.381,2.56,14.34,15.72
325176.953000,-0.381,-0.847,0.393,2.32,13.28,16.79
325176.968000,-0.385,-0.865,0.402,3.48,11.6,18.28
325176.968000,-0.392,-0.882,0.407,5.58,9.37,19.23
325176.984000,-0.401,-0.897,0.421,7.87,6.56,19.29
325177.000000,-0.409,-0.902,0.421,10.9,3.39,18.65
325177.000000,-0.413,-0.895,0.409,14.53,0.64,18.49
325177.015000,-0.413,-0.887,0.39,16.63,-1.59,19.2
325177.015000,-0.413,-0.882,0.375,15.78,-3.27,20.08
325177.031000,-0.41,-0.885,0.352,11.57,-4.3,20.39
325177.046000,-0.404,-0.889,0.338,5.8,-4.61,19.78
325177.046000,-0.404,-0.895,0.334,-0.24,-4.82,18.49
325177.062000,-0.416,-0.898,0.33,-6.41,-5.19,17.15
325177.062000,-0.421,-0.909,0.339,-11.14,-5.43,16.75
325177.093000,-0.417,-0.919,0.342,-12.21,-6.2,16.51
325177.093000,-0.417,-0.932,0.343,-11.11,-7.32,15.29
325177.109000,-0.421,-0.94,0.353,-7.93,-8.12,13.4
325177.109000,-0.427,-0.935,0.349,-3.63,-9.52,11.23
325177.125000,-0.428,-0.932,0.34,0.55,-11.17,9.83
325177.125000,-0.421,-0.918,0.332,4.18,-12.18,8.73
325177.140000,-0.417,-0.9,0.331,6.68,-12.67,7.93
325177.140000,-0.42,-0.888,0.329,8.3,-12.36,7.14
325177.156000,-0.425,-0.869,0.341,8.82,-11.66,6.78
325177.171000,-0.422,-0.844,0.344,8.09,-11.41,6.47
325177.187000,-0.413,-0.834,0.317,4.58,-10.41,6.1
325177.187000,-0.412,-0.833,0.31,-2.14,-8.67,5.52
325177.203000,-0.421,-0.841,0.329,-10.28,-7.81,4.46
325177.218000,-0.43,-0.849,0.351,-15.69,-7.75,3.54
325177.218000,-0.437,-0.858,0.362,-16.69,-8.55,3.17
325177.234000,-0.439,-0.859,0.367,-15.17,-9.61,2.81
325177.234000,-0.44,-0.846,0.362,-13.12,-11.11,2.5
325177.250000,-0.44,-0.838,0.354,-11.66,-12.39,3.08
325177.265000,-0.442,-0.848,0.362,-10.44,-13.15,3.97
325177.265000,-0.445,-0.845,0.376,-7.78,-14.04,4.36
325177.281000,-0.45,-0.84,0.368,-4.43,-15.5,4.61
325177.281000,-0.456,-0.836,0.351,-2.93,-16.75,5.77
325177.296000,-0.45,-0.833,0.329,-4.21,-17.18,7.11
325177.312000,-0.443,-0.847,0.308,-7.35,-16.08,7.72
325177.312000,-0.437,-0.852,0.305,-10.86,-13.79,7.69
325177.328000,-0.439,-0.849,0.318,-13.49,-11.87,7.23
325177.328000,-0.44,-0.848,0.329,-14.5,-11.32,7.11
325177.359000,-0.439,-0.842,0.329,-13.92,-11.2,7.32
325177.359000,-0.438,-0.836,0.329,-12.67,-11.2,7.9
325177.359000,-0.438,-0.844,0.337,-10.74,-11.23,8.64
325177.375000,-0.442,-0.843,0.344,-7.93,-11.51,8.45
325177.390000,-0.451,-0.838,0.339,-5.49,-11.69,8.3
325177.406000,-0.453,-0.843,0.328,-4.76,-12.36,8.88
325177.406000,-0.449,-0.856,0.321,-5.71,-13.61,9.43
325177.406000,-0.443,-0.867,0.308,-6.68,-14.1,9.0
325177.437000,-0.442,-0.873,0.302,-6.71,-13.18,8.36
325177.437000,-0.434,-0.873,0.302,-6.07,-11.69,7.93
325177.453000,-0.433,-0.871,0.303,-5.65,-10.56,7.14
325177.453000,-0.435,-0.874,0.3,-5.13,-9.77,6.2
325177.468000,-0.44,-0.873,0.298,-4.55,-9.13,5.8
325177.484000,-0.443,-0.873,0.29,-4.24,-8.55,6.16
325177.500000,-0.445,-0.888,0.293,-4.18,-7.57,6.78
325177.500000,-0.44,-0.902,0.302,-3.36,-6.81,6.47
325177.515000,-0.442,-0.898,0.299,-1.59,-6.74,5.19
325177.515000,-0.442,-0.895,0.294,0.06,-6.23,4.61
325177.531000,-0.44,-0.892,0.293,1.19,-5.37,4.52
325177.546000,-0.439,-0.895,0.3,2.29,-4.58,3.72
325177.546000,-0.445,-0.889,0.304,3.11,-4.18,2.14
325177.562000,-0.445,-0.876,0.297,2.81,-4.12,0.92
325177.562000,-0.445,-0.866,0.297,1.77,-3.66,0.21
325177.578000,-0.449,-0.855,0.302,-0.55,-3.14,-0.21
325177.593000,-0.45,-0.852,0.312,-2.08,-2.59,0.06
325177.593000,-0.448,-0.851,0.317,-2.5,-2.2,0.4
325177.609000,-0.453,-0.848,0.316,-2.78,-2.11,0.24
325177.625000,-0.46,-0.854,0.316,-2.96,-2.2,0.64
325177.640000,-0.46,-0.864,0.321,-2.56,-2.23,1.46
325177.640000,-0.46,-0.864,0.325,-0.95,-2.32,1.16
325177.656000,-0.465,-0.857,0.319,1.22,-2.35,0.7
325177.656000,-0.466,-0.853,0.315,3.36,-2.23,1.04
325177.671000,-0.458,-0.849,0.315,4.91,-1.77,1.65
325177.687000,-0.456,-0.848,0.322,6.04,-0.89,1.86
325177.687000,-0.458,-0.844,0.339,8.03,-0.06,1.65
325177.703000,-0.465,-0.833,0.349,11.81,0.12,1.46
325177.703000,-0.467,-0.817,0.345,15.38,0.12,2.14
325177.718000,-0.467,-0.804,0.346,17.33,0.67,3.17
325177.718000,-0.468,-0.805,0.361,18.74,1.1,4.21
325177.734000,-0.469,-0.803,0.376,20.23,1.01,4.03
325177.765000,-0.469,-0.794,0.37,21.55,0.43,3.54
325177.765000,-0.472,-0.788,0.366,21.3,0.06,3.63
325177.765000,-0.469,-0.79,0.375,20.51,0.55,3.97
325177.781000,-0.467,-0.785,0.382,20.05,0.73,3.91
325177.796000,-0.467,-0.78,0.386,19.5,0.82,3.66
325177.796000,-0.465,-0.776,0.394,18.49,0.79,3.75
325177.812000,-0.461,-0.772,0.39,17.49,0.24,4.24
325177.828000,-0.454,-0.772,0.383,16.17,-0.61,4.82
325177.828000,-0.446,-0.778,0.381,14.28,-0.89,5.28
325177.843000,-0.446,-0.788,0.372,12.82,-0.67,5.07
325177.859000,-0.451,-0.795,0.368,11.32,0.09,4.55
325177.859000,-0.451,-0.804,0.372,10.44,0.85,4.49
325177.875000,-0.452,-0.816,0.388,11.14,1.19,3.97
325177.875000,-0.462,-0.812,0.402,13.37,1.01,2.96
325177.890000,-0.466,-0.808,0.404,16.21,-0.21,3.63
325177.890000,-0.461,-0.811,0.384,17.88,-1.83,5.28
325177.906000,-0.454,-0.814,0.369,17.21,-3.05,6.29
325177.921000,-0.451,-0.811,0.361,14.86,-3.27,6.38
325177.937000,-0.453,-0.814,0.356,11.99,-2.62,6.13
325177.937000,-0.449,-0.815,0.36,8.91,-1.43,5.68
325177.953000,-0.451,-0.819,0.37,5.77,-0.76,4.97
325177.968000,-0.456,-0.82,0.378,3.54,-1.13,4.3
325177.968000,-0.459,-0.821,0.38,2.26,-2.2,4.15
325177.984000,-0.459,-0.826,0.382,2.23,-3.42,4.79
325177.984000,-0.458,-0.825,0.373,2.81,-4.36,5.16
325178.000000,-0.458,-0.82,0.362,1.98,-4.85,4.94
325178.000000,-0.461,-0.824,0.352,-0.21,-4.91,4.58
325178.015000,-0.471,-0.831,0.356,-2.9,-4.18,4.52
325178.031000,-0.472,-0.842,0.362,-3.91,-3.08,4.09
325178.031000,-0.474,-0.841,0.368,-3.88,-2.35,3.14
325178.046000,-0.479,-0.841,0.367,-3.72,-1.95,2.41
325178.062000,-0.48,-0.846,0.365,-3.78,-2.14,2.38
325178.078000,-0.474,-0.847,0.364,-3.45,-2.66,2.32
325178.093000,-0.466,-0.84,0.36,-2.17,-2.53,1.71
325178.093000,-0.466,-0.84,0.355,-0.67,-1.98,1.16
325178.109000,-0.466,-0.846,0.36,0.98,-0.98,0.61
325178.109000,-0.466,-0.84,0.36,2.5,-0.24,-0.61
325178.125000,-0.466,-0.829,0.359,3.17,0.55,-1.53
325178.140000,-0.467,-0.824,0.362,2.99,1.43,-2.01
325178.140000,-0.469,-0.818,0.364,2.17,2.5,-2.59
325178.156000,-0.468,-0.813,0.367,1.37,3.48,-2.96
325178.156000,-0.473,-0.812,0.375,0.31,4.03,-2.81
325178.171000,-0.476,-0.815,0.38,0.06,4.21,-2.32
325178.187000,-0.475,-0.815,0.391,0.98,4.24,-2.2
325178.187000,-0.478,-0.813,0.398,3.02,4.0,-2.17
325178.203000,-0.477,-0.806,0.394,5.22,3.54,-1.59
325178.203000,-0.472,-0.798,0.391,6.26,2.99,-1.1
325178.218000,-0.467,-0.793,0.391,5.86,2.62,-1.07
325178.234000,-0.469,-0.793,0.395,4.76,2.08,-0.92
325178.234000,-0.465,-0.793,0.402,4.36,1.59,-0.61
325178.250000,-0.465,-0.788,0.399,4.97,1.4,-0.31
325178.265000,-0.461,-0.779,0.396,5.83,1.19,0.27
325178.265000,-0.464,-0.776,0.398,6.32,1.4,1.13
325178.281000,-0.463,-0.78,0.401,6.32,1.46,2.01
325178.281000,-0.469,-0.779,0.406,6.13,1.74,2.26
325178.312000,-0.475,-0.784,0.41,5.83,2.01,2.66
325178.312000,-0.471,-0.793,0.407,6.1,2.66,2.99
325178.328000,-0.48,-0.799,0.407,6.01,3.23,2.5
325178.328000,-0.482,-0.813,0.417,5.8,3.27,2.23
325178.343000,-0.481,-0.815,0.424,6.65,2.96,1.53
325178.343000,-0.482,-0.806,0.422,7.78,2.38,0.76
325178.359000,-0.481,-0.802,0.421,8.82,1.62,0.89
325178.359000,-0.478,-0.8,0.425,8.88,1.19,0.82
325178.390000,-0.478,-0.797,0.433,9.52,0.49,0.82
325178.390000,-0.479,-0.795,0.436,10.13,-0.37,1.01
325178.390000,-0.482,-0.788,0.435,10.44,-0.89,1.83
325178.406000,-0.486,-0.784,0.436,10.41,-1.13,2.87
325178.421000,-0.479,-0.787,0.43,9.64,-1.28,3.51
325178.437000,-0.482,-0.796,0.433,8.3,-1.46,3.27
325178.437000,-0.486,-0.801,0.432,6.84,-1.71,2.44
325178.453000,-0.487,-0.807,0.436,6.07,-2.11,1.74
325178.468000,-0.489,-0.81,0.435,6.16,-2.59,0.92
325178.468000,-0.49,-0.812,0.43,6.2,-3.39,0.31
325178.468000,-0.485,-0.819,0.417,5.86,-4.3,0.24
325178.484000,-0.477,-0.82,0.401,4.82,-4.85,-0.18
325178.500000,-0.471,-0.819,0.399,3.81,-4.27,-0.64
325178.515000,-0.464,-0.813,0.394,3.66,-2.99,-1.07
325178.531000,-0.458,-0.811,0.395,3.63,-1.68,-1.43
325178.531000,-0.453,-0.808,0.402,3.72,-0.67,-1.98
325178.546000,-0.453,-0.8,0.403,3.91,-0.15,-2.35
325178.546000,-0.459,-0.803,0.403,3.48,0.52,-2.41
325178.562000,-0.461,-0.81,0.411,2.81,1.07,-2.53
325178.578000,-0.465,-0.815,0.422,2.75,1.16,-2.56
325178.578000,-0.47,-0.824,0.429,4.0,0.79,-2.5
325178.593000,-0.472,-0.829,0.435,6.35,0.21,-2.32
325178.609000,-0.469,-0.83,0.429,8.94,-0.73,-2.41
325178.609000,-0.47,-0.837,0.427,10.44,-1.62,-2.93
325178.625000,-0.47,-0.832,0.431,11.84,-1.89,-3.85
325178.625000,-0.467,-0.821,0.425,13.18,-2.08,-4.61
325178.640000,-0.465,-0.809,0.414,13.4,-1.56,-4.76
325178.656000,-0.464,-0.8,0.415,12.21,-0.46,-4.97
325178.671000,-0.459,-0.794,0.421,10.5,0.58,-5.43
325178.671000,-0.459,-0.789,0.423,8.61,1.34,-5.92
325178.671000,-0.456,-0.782,0.428,6.99,1.95,-6.53
325178.687000,-0.455,-0.781,0.432,5.86,2.62,-7.45
325178.703000,-0.462,-0.78,0.444,5.65,3.08,-7.72
325178.718000,-0.468,-0.781,0.455,7.08,3.48,-7.35
325178.718000,-0.469,-0.782,0.464,9.49,3.36,-7.26
325178.734000,-0.469,-0.78,0.47,12.33,2.84,-7.45
325178.734000,-0.473,-0.776,0.476,15.02,1.83,-7.39
325178.750000,-0.478,-0.772,0.478,18.34,1.16,-6.38
325178.750000,-0.477,-0.753,0.473,20.14,0.46,-5.43
325178.765000,-0.48,-0.759,0.463,20.39,-0.4,-3.91
325178.781000,-0.469,-0.762,0.465,20.05,-0.52,-3.08
325178.796000,-0.468,-0.752,0.467,18.52,-0.55,-3.54
325178.796000,-0.475,-0.749,0.474,16.85,-0.49,-4.33
325178.812000,-0.48,-0.746,0.484,16.14,-0.46,-3.81
325178.828000,-0.476,-0.749,0.495,16.51,-0.89,-2.96
325178.828000,-0.473,-0.748,0.5,17.73,-2.2,-2.9
325178.843000,-0.475,-0.75,0.504,19.47,-3.48,-3.42
325178.843000,-0.472,-0.742,0.499,21.06,-4.61,-3.66
325178.859000,-0.462,-0.731,0.487,22.28,-5.31,-3.36
325178.875000,-0.458,-0.728,0.474,21.58,-5.28,-2.81
325178.875000,-0.456,-0.731,0.473,19.2,-4.64,-2.23
325178.890000,-0.451,-0.726,0.474,17.37,-3.69,-2.44
325178.906000,-0.456,-0.728,0.474,15.69,-2.66,-2.5
325178.906000,-0.456,-0.731,0.485,14.37,-1.68,-1.62
325178.921000,-0.453,-0.735,0.496,13.95,-1.28,-0.89
325178.937000,-0.457,-0.74,0.508,14.5,-1.5,-0.34
325178.937000,-0.457,-0.735,0.522,16.54,-2.17,-0.31
325178.953000,-0.455,-0.732,0.523,18.92,-3.23,-0.12
325178.968000,-0.453,-0.724,0.527,20.57,-4.21,0.55
325178.968000,-0.454,-0.725,0.532,22.1,-4.46,1.74
325178.984000,-0.452,-0.723,0.533,23.07,-4.61,2.44
325179.000000,-0.45,-0.716,0.53,22.86,-4.7,2.62
325179.000000,-0.447,-0.714,0.523,20.66,-4.91,3.42
325179.015000,-0.449,-0.71,0.518,17.33,-4.55,4.06
325179.031000,-0.447,-0.714,0.517,13.58,-3.94,4.88
325179.031000,-0.442,-0.721,0.519,9.95,-3.39,5.46
325179.046000,-0.446,-0.725,0.525,7.17,-3.02,5.04
325179.046000,-0.45,-0.724,0.536,5.34,-2.5,4.61
325179.062000,-0.456,-0.724,0.542,5.25,-2.35,5.01
325179.062000,-0.453,-0.724,0.545,6.53,-2.38,5.52
325179.078000,-0.454,-0.716,0.545,7.6,-2.66,5.43
325179.093000,-0.46,-0.708,0.547,8.18,-3.14,5.37
325179.093000,-0.455,-0.704,0.546,8.48,-3.48,6.32
325179.109000,-0.455,-0.696,0.538,7.54,-3.78,6.41
325179.125000,-0.454,-0.71,0.546,5.04,-3.97,6.62
325179.140000,-0.451,-0.713,0.553,3.27,-4.49,6.1
325179.140000,-0.455,-0.707,0.547,1.71,-5.83,5.19
325179.156000,-0.457,-0.708,0.539,-0.82,-6.78,5.4
325179.156000,-0.45,-0.713,0.533,-3.54,-7.51,6.29
325179.171000,-0.442,-0.726,0.531,-5.92,-8.27,6.99
325179.187000,-0.443,-0.745,0.526,-6.44,-8.7,7.29
325179.187000,-0.439,-0.757,0.518,-5.16,-8.61,7.66
325179.203000,-0.435,-0.767,0.511,-2.96,-7.97,7.57
325179.218000,-0.435,-0.774,0.509,-1.01,-6.9,6.44
325179.218000,-0.437,-0.766,0.502,0.0,-5.95,4.67
325179.234000,-0.443,-0.761,0.501,-0.03,-5.16,3.78
325179.234000,-0.443,-0.757,0.498,-0.43,-4.36,3.63
325179.250000,-0.442,-0.757,0.498,-1.59,-3.57,3.05
325179.250000,-0.445,-0.756,0.502,-2.35,-3.27,2.32
325179.265000,-0.449,-0.757,0.501,-2.56,-2.93,2.04
325179.281000,-0.45,-0.75,0.505,-2.78,-2.41,1.74
325179.281000,-0.444,-0.742,0.509,-2.99,-2.32,1.01
325179.296000,-0.44,-0.726,0.503,-3.94,-2.78,0.34
325179.312000,-0.437,-0.718,0.493,-6.38,-3.02,0.82
325179.312000,-0.436,-0.73,0.496,-9.43,-2.14,1.74
325179.328000,-0.438,-0.749,0.501,-12.21,-0.98,1.71
325179.328000,-0.447,-0.768,0.513,-14.19,-0.58,0.95
325179.343000,-0.458,-0.777,0.522,-14.47,-0.95,0.43
325179.359000,-0.467,-0.794,0.522,-13.73,-1.28,1.07
325179.359000,-0.467,-0.811,0.521,-13.31,-1.43,1.53
325179.390000,-0.469,-0.822,0.515,-14.71,-2.11,0.37
325179.390000,-0.474,-0.826,0.511,-17.58,-3.33,-1.95
325179.406000,-0.479,-0.821,0.513,-20.17,-4.82,-3.88
325179.406000,-0.473,-0.811,0.511,-21.06,-5.95,-4.82
325179.421000,-0.462,-0.796,0.505,-21.52,-6.78,-5.1
325179.437000,-0.462,-0.779,0.501,-23.01,-7.6,-4.64
325179.453000,-0.461,-0.769,0.508,-25.94,-8.48,-3.63
325179.453000,-0.469,-0.767,0.531,-28.17,-10.01,-2.62
325179.468000,-0.47,-0.767,0.553,-28.57,-12.91,-0.64
325179.468000,-0.46,-0.739,0.547,-28.17,-16.69,0.31
325179.484000,-0.451,-0.733,0.526,-30.98,-20.94,1.86
325179.500000,-0.437,-0.72,0.51,-36.93,-25.3,3.72
325179.500000,-0.431,-0.712,0.493,-43.37,-27.92,4.15
325179.515000,-0.421,-0.719,0.501,-49.5,-29.05,5.34
325179.515000,-0.413,-0.716,0.517,-52.34,-30.15,7.81
325179.531000,-0.406,-0.71,0.519,-51.94,-32.62,10.22
325179.546000,-0.394,-0.7,0.499,-51.58,-36.56,13.06
325179.546000,-0.376,-0.693,0.466,-52.77,-39.98,16.17
325179.562000,-0.364,-0.699,0.442,-55.3,-41.35,18.92
325179.578000,-0.365,-0.716,0.436,-57.41,-40.22,20.94
325179.578000,-0.377,-0.728,0.44,-57.19,-36.71,22.68
325179.593000,-0.395,-0.739,0.45,-54.99,-32.23,24.99
325179.609000,-0.411,-0.755,0.476,-52.16,-27.99,27.65
325179.609000,-0.433,-0.775,0.51,-49.04,-25.27,30.03
325179.609000,-0.456,-0.795,0.548,-43.61,-23.93,31.89
325179.625000,-0.475,-0.806,0.577,-35.1,-24.57,33.36
325179.640000,-0.488,-0.811,0.581,-25.79,-26.67,34.3
325179.656000,-0.484,-0.813,0.567,-18.89,-29.66,34.33
325179.656000,-0.47,-0.823,0.538,-15.84,-33.3,32.69
325179.671000,-0.448,-0.84,0.482,-16.88,-36.38,29.11
325179.671000,-0.42,-0.871,0.421,-22.1,-37.39,24.08
325179.687000,-0.407,-0.899,0.386,-29.39,-35.74,17.12
325179.703000,-0.41,-0.926,0.388,-33.05,-31.5,10.47
325179.703000,-0.412,-0.945,0.411,-28.17,-25.88,5.43
325179.718000,-0.409,-0.947,0.414,-15.53,-21.33,1.68
325179.734000,-0.407,-0.941,0.401,-0.95,-17.3,-1.1
325179.734000,-0.403,-0.939,0.386,11.32,-13.15,-3.57
325179.750000,-0.406,-0.945,0.357,20.33,-9.19,-6.47
325179.765000,-0.411,-0.956,0.323,25.73,-4.61,-9.61
325179.765000,-0.413,-0.97,0.31,28.72,1.37,-14.34
325179.781000,-0.411,-0.981,0.317,32.38,8.48,-22.31
325179.796000,-0.415,-0.969,0.32,36.96,15.59,-32.26
325179.796000,-0.419,-0.937,0.316,40.07,22.28,-41.69
325179.812000,-0.427,-0.905,0.318,40.86,29.18,-48.8
325179.828000,-0.441,-0.892,0.324,40.25,35.65,-53.56
325179.843000,-0.46,-0.897,0.345,39.86,41.57,-56.28
325179.843000,-0.47,-0.908,0.376,42.18,45.99,-58.11
325179.843000,-0.479,-0.899,0.396,47.61,48.34,-60.7
325179.859000,-0.491,-0.867,0.412,54.69,49.59,-62.84
325179.875000,-0.491,-0.841,0.421,62.65,50.39,-63.02
325179.890000,-0.48,-0.816,0.409,69.64,50.14,-61.89
325179.890000,-0.467,-0.788,0.386,72.79,50.11,-61.49
325179.906000,-0.459,-0.773,0.379,71.32,50.9,-61.19
325179.921000,-0.453,-0.765,0.378,66.81,51.76,-60.61
325179.921000,-0.443,-0.76,0.362,60.09,52.8,-59.82
325179.937000,-0.434,-0.768,0.347,38.09,54.45,-60.46
325179.937000,-0.423,-0.787,0.344,25.57,55.3,-62.14
325179.937000,-0.41,-0.792,0.337,13.03,56.7,-65.28
325179.953000,-0.405,-0.796,0.356,3.51,57.1,-67.72
325179.968000,-0.409,-0.786,0.39,-1.16,56.34,-67.66
325179.984000,-0.417,-0.757,0.418,-2.66,53.65,-64.0
325179.984000,-0.426,-0.703,0.458,-3.54,48.86,-56.76
325179.984000,-0.425,-0.696,0.477,-2.11,42.73,-47.03
325180.015000,-0.411,-0.694,0.479,1.01,35.95,-36.53
325180.015000,-0.394,-0.697,0.48,4.15,29.33,-26.49
325180.031000,-0.372,-0.709,0.472,7.57,23.74,-17.91
325180.046000,-0.35,-0.71,0.446,8.76,20.23,-11.84
325180.046000,-0.341,-0.725,0.433,6.78,19.17,-8.85
325180.062000,-0.336,-0.746,0.433,2.17,20.11,-8.21
325180.078000,-0.334,-0.762,0.437,-2.87,21.88,-9.37
325180.078000,-0.339,-0.779,0.436,-7.17,23.96,-10.71
325180.093000,-0.341,-0.8,0.447,-10.62,26.92,-11.47
325180.109000,-0.341,-0.811,0.468,-12.12,30.12,-12.51
325180.109000,-0.344,-0.816,0.499,-11.32,32.93,-14.19
325180.109000,-0.354,-0.815,0.529,-8.09,34.7,-15.69
325180.125000,-0.362,-0.809,0.557,-3.14,35.37,-15.78
325180.140000,-0.371,-0.804,0.586,3.45,35.07,-15.05
325180.156000,-0.383,-0.798,0.605,11.54,34.18,-13.55
325180.156000,-0.391,-0.79,0.624,19.65,32.81,-11.44
325180.171000,-0.395,-0.786,0.639,26.86,30.58,-9.89
325180.171000,-0.4,-0.775,0.652,31.53,27.25,-9.25
325180.187000,-0.393,-0.76,0.649,33.66,23.38,-9.25
325180.187000,-0.389,-0.743,0.626,32.11,19.78,-10.01
325180.218000,-0.387,-0.73,0.612,26.49,17.64,-11.02
325180.234000,-0.377,-0.723,0.609,19.01,16.82,-12.15
325180.234000,-0.373,-0.723,0.612,12.3,16.21,-13.43
325180.250000,-0.373,-0.72,0.618,8.0,14.98,-13.61
325180.250000,-0.369,-0.713,0.618,6.1,13.06,-12.73
325180.265000,-0.364,-0.706,0.623,6.26,10.83,-11.05
325180.281000,-0.359,-0.7,0.621,7.9,8.64,-8.67
325180.281000,-0.359,-0.701,0.603,9.43,6.07,-5.92
325180.296000,-0.35,-0.713,0.585,9.28,3.45,-3.2
325180.296000,-0.339,-0.728,0.569,7.57,0.73,-2.08
325180.312000,-0.334,-0.741,0.551,5.31,-1.68,-1.43
325180.328000,-0.317,-0.756,0.53,3.54,-3.42,-0.43
325180.328000,-0.301,-0.768,0.513,1.86,-4.36,-0.18
325180.343000,-0.298,-0.779,0.506,0.06,-4.15,-0.24
325180.343000,-0.292,-0.793,0.505,-0.37,-3.11,0.46
325180.359000,-0.289,-0.801,0.502,0.34,-1.74,1.28
325180.375000,-0.293,-0.808,0.502,1.1,-0.37,1.92
325180.375000,-0.304,-0.82,0.509,2.11,0.85,2.53
325180.390000,-0.312,-0.831,0.518,3.78,2.04,3.17
325180.406000,-0.324,-0.835,0.528,6.16,2.81,3.72
325180.421000,-0.335,-0.844,0.535,8.45,2.87,4.43
325180.421000,-0.342,-0.853,0.541,9.16,2.62,4.43
325180.437000,-0.347,-0.857,0.54,7.75,1.4,3.3
325180.437000,-0.351,-0.863,0.538,4.85,-0.24,1.77
325180.453000,-0.351,-0.864,0.531,1.46,-1.56,0.0
325180.468000,-0.35,-0.858,0.523,-1.8,-2.01,-1.8
325180.468000,-0.351,-0.855,0.522,-4.85,-2.08,-3.11
325180.468000,-0.357,-0.847,0.529,-7.08,-1.98,-3.69
325180.484000,-0.356,-0.846,0.534,-8.3,-2.75,-3.27
325180.515000,-0.35,-0.847,0.525,-8.79,-4.64,-2.93
325180.515000,-0.344,-0.863,0.507,-9.74,-6.65,-2.87
325180.515000,-0.339,-0.87,0.504,-10.47,-7.81,-3.23
325180.531000,-0.336,-0.873,0.496,-9.4,-8.15,-4.15
325180.546000,-0.33,-0.871,0.477,-8.3,-8.51,-5.13
325180.546000,-0.323,-0.87,0.46,-8.55,-8.79,-6.16
325180.562000,-0.314,-0.865,0.446,-10.25,-8.18,-7.45
325180.578000,-0.309,-0.865,0.435,-11.93,-7.17,-8.39
325180.578000,-0.308,-0.872,0.437,-12.3,-5.68,-8.85
325180.593000,-0.307,-0.875,0.442,-10.65,-4.06,-9.19
325180.593000,-0.31,-0.874,0.439,-7.51,-2.75,-9.19
325180.609000,-0.312,-0.87,0.441,-3.85,-1.16,-8.67
325180.625000,-0.311,-0.864,0.443,-0.73,0.49,-8.39
325180.640000,-0.308,-0.855,0.441,1.4,1.98,-8.48
325180.640000,-0.308,-0.852,0.444,2.44,3.63,-8.85
325180.656000,-0.307,-0.85,0.446,2.66,4.79,-9.64
325180.656000,-0.302,-0.853,0.445,2.14,5.37,-11.02
325180.671000,-0.303,-0.85,0.449,0.4,5.71,-13.0
325180.687000,-0.311,-0.841,0.458,-1.28,5.89,-14.8
325180.687000,-0.31,-0.832,0.451,-1.65,7.11,-15.32
325180.703000,-0.303,-0.823,0.444,-1.74,9.92,-15.11
325180.703000,-0.302,-0.823,0.438,-2.87,13.7,-15.23
325180.718000,-0.302,-0.837,0.425,-4.18,19.04,-15.69
325180.734000,-0.289,-0.854,0.416,-5.98,26.52,-17.85
325180.734000,-0.28,-0.858,0.411,-8.61,34.09,-21.58
325180.750000,-0.299,-0.86,0.44,-12.6,39.25,-25.15
325180.750000,-0.315,-0.874,0.482,-15.75,39.28,-26.86
325180.765000,-0.322,-0.886,0.521,-14.34,34.52,-27.16
325180.781000,-0.327,-0.89,0.545,-8.91,26.98,-26.58
325180.796000,-0.325,-0.884,0.528,0.7,18.8,-24.69
325180.796000,-0.312,-0.873,0.475,8.39,12.24,-21.7
325180.812000,-0.286,-0.869,0.419,9.28,9.64,-19.29
325180.828000,-0.257,-0.879,0.383,3.36,10.28,-19.14
325180.828000,-0.239,-0.897,0.364,-7.6,12.76,-21.73
325180.843000,-0.243,-0.929,0.378,-19.75,15.93,-25.27
325180.859000,-0.246,-0.962,0.398,-27.8,18.74,-27.74
325180.859000,-0.247,-0.986,0.396,-30.43,21.12,-28.72
325180.859000,-0.25,-1.008,0.416,-29.54,23.96,-27.71
325180.890000,-0.25,-1.043,0.449,-25.54,25.39,-25.03
325180.890000,-0.253,-1.065,0.472,-20.08,24.14,-22.55
325180.890000,-0.25,-1.082,0.457,-14.71,21.39,-20.63
325180.906000,-0.239,-1.095,0.414,-14.8,19.53,-20.11
325180.921000,-0.237,-1.111,0.393,-22.86,20.02,-22.37
325180.937000,-0.237,-1.134,0.391,-35.89,21.64,-26.92
325180.937000,-0.219,-1.146,0.381,-51.0,23.47,-33.85
325180.953000,-0.213,-1.168,0.376,-67.05,25.73,-41.84
325180.968000,-0.21,-1.199,0.381,-82.22,27.68,-48.86
325180.968000,-0.216,-1.226,0.362,-94.18,30.52,-54.38
325180.984000,-0.24,-1.271,0.335,-104.13,35.0,-58.17
325181.000000,-0.266,-1.358,0.356,-112.49,40.07,-60.24
325181.000000,-0.278,-1.442,0.388,-114.47,42.36,-63.66
325181.015000,-0.27,-1.479,0.34,-113.68,39.92,-69.89
325181.015000,-0.284,-1.531,0.245,-122.44,38.39,-80.57
325181.031000,-0.275,-1.572,0.191,-141.33,41.54,-94.42
325181.046000,-0.284,-1.602,0.132,-164.4,47.12,-112.55
325181.046000,-0.28,-1.64,0.128,-193.49,54.99,-131.81
325181.062000,-0.254,-1.639,0.173,-214.42,60.34,-150.0
325181.062000,-0.257,-1.632,0.181,-221.41,59.42,-166.72
325181.078000,-0.237,-1.627,0.092,-221.59,57.07,-181.71
325181.093000,-0.226,-1.604,0.0,-224.95,59.63,-197.64
325181.093000,-0.176,-1.55,-0.031,-226.54,67.84,-210.39
325181.109000,-0.128,-1.49,-0.061,-221.26,77.91,-223.73
325181.125000,-0.118,-1.411,-0.07,-211.83,89.42,-233.34
325181.125000,-0.126,-1.346,-0.115,-198.83,100.22,-237.37
325181.140000,-0.085,-1.263,-0.107,-188.57,109.87,-237.04
325181.156000,-0.053,-1.185,-0.088,-169.04,116.18,-237.68
325181.171000,-0.052,-1.113,-0.096,-148.26,118.32,-239.54
325181.171000,-0.021,-1.03,-0.107,-135.75,119.14,-242.01
325181.171000,0.012,-0.934,-0.059,-126.77,119.85,-244.76
325181.187000,0.003,-0.844,-0.012,-115.57,117.28,-245.34
325181.203000,0.052,-0.749,-0.016,-100.68,113.35,-242.01
325181.203000,0.052,-0.659,-0.06,-87.04,111.15,-236.55
325181.218000,0.06,-0.587,-0.061,-79.13,110.84,-223.49
325181.218000,0.114,-0.518,-0.086,-69.22,110.29,-209.54
325181.234000,0.144,-0.464,-0.109,-66.74,108.49,-197.88
325181.250000,0.189,-0.414,-0.133,-74.59,106.11,-189.37
325181.250000,0.231,-0.441,-0.098,-94.36,105.56,-182.68
325181.265000,0.239,-0.415,-0.016,-105.53,104.98,-177.98
325181.265000,0.244,-0.424,0.079,-96.32,101.84,-171.0
325181.296000,0.247,-0.393,0.165,-77.3,92.29,-161.9
325181.296000,0.288,-0.333,0.17,-53.5,78.49,-152.23
325181.296000,0.328,-0.305,0.18,-40.22,64.33,-143.28
325181.312000,0.351,-0.253,0.232,-35.58,48.52,-134.98
325181.343000,0.399,-0.211,0.255,-28.41,33.27,-126.13
325181.343000,0.443,-0.152,0.303,-22.06,20.87,-115.27
325181.359000,0.495,-0.111,0.368,-13.61,11.11,-100.96
325181.359000,0.524,-0.07,0.424,-2.59,1.4,-84.44
325181.375000,0.559,0.009,0.368,8.39,-10.19,-67.02
325181.390000,0.615,0.083,0.255,6.26,-18.86,-49.68
325181.390000,0.612,0.073,0.226,-20.39,-26.55,-31.16
325181.406000,0.601,0.033,0.201,-58.17,-41.6,-14.44
325181.421000,0.623,-0.056,0.171,-89.08,-57.56,-1.59
325181.421000,0.617,-0.169,0.157,-108.8,-70.35,8.91
325181.437000,0.627,-0.293,0.093,-114.41,-82.31,19.23
325181.437000,0.647,-0.409,-0.031,-108.07,-89.27,27.59
325181.453000,0.656,-0.486,-0.087,-90.12,-90.03,31.46
325181.468000,0.692,-0.529,-0.119,-60.55,-91.56,31.31
325181.468000,0.734,-0.491,-0.22,-26.86,-93.81,28.53
325181.484000,0.749,-0.398,-0.398,-2.23,-90.37,26.58
325181.500000,0.741,-0.357,-0.579,-0.7,-79.81,30.43
325181.500000,0.726,-0.408,-0.585,-43.82,-62.78,43.03
325181.515000,0.666,-0.483,-0.496,-64.7,-77.49,43.0
325181.515000,0.651,-0.554,-0.474,-68.51,-95.77,39.09
325181.531000,0.679,-0.594,-0.495,-53.19,-105.32,36.19
325181.546000,0.711,-0.621,-0.538,-29.85,-106.05,35.8
325181.546000,0.746,-0.596,-0.622,-8.85,-98.79,36.62
325181.562000,0.855,-0.538,-0.949,-9.43,-81.18,37.78
325181.578000,0.859,-0.555,-1.028,-30.67,-55.15,33.85
325181.578000,0.832,-0.621,-0.953,-52.19,-28.44,26.89
325181.578000,0.785,-0.688,-0.856,-61.28,-9.46,19.93
325181.593000,0.749,-0.722,-0.723,-54.14,-0.37,13.46
325181.609000,0.744,-0.699,-0.631,-32.69,-0.92,7.54
325181.625000,0.729,-0.625,-0.617,-9.58,-7.26,3.2
325181.625000,0.752,-0.583,-0.66,2.96,-14.22,1.13
325181.625000,0.767,-0.531,-0.663,3.45,-16.33,-1.25
325181.640000,0.783,-0.484,-0.709,-5.62,-16.36,-3.11
325181.671000,0.794,-0.459,-0.732,-22.37,-11.81,-4.64
325181.671000,0.755,-0.463,-0.691,-37.69,-3.48,-6.44
325181.671000,0.688,-0.476,-0.646,-46.3,0.31,-8.42
325181.687000,0.622,-0.486,-0.61,-44.92,-0.92,-9.34
325181.703000,0.545,-0.499,-0.593,-36.1,-6.38,-5.8
325181.718000,0.517,-0.503,-0.627,-20.63,-14.92,1.56
325181.718000,0.529,-0.497,-0.709,-7.26,-21.3,9.19
325181.734000,0.576,-0.519,-0.779,-2.59,-20.2,14.53
325181.734000,0.609,-0.545,-0.766,-8.36,-12.76,15.59
325181.750000,0.612,-0.563,-0.712,-20.2,-5.8,9.89
325181.750000,0.621,-0.569,-0.687,-25.39,-0.95,-0.4
325181.765000,0.61,-0.544,-0.652,-26.89,5.89,-12.76
325181.781000,0.571,-0.501,-0.569,-26.95,9.89,-23.47
325181.796000,0.517,-0.414,-0.576,-22.22,7.57,-29.24
325181.796000,0.483,-0.349,-0.637,-22.86,5.01,-27.28
325181.812000,0.442,-0.342,-0.64,-30.15,4.94,-19.32
325181.828000,0.404,-0.365,-0.633,-36.56,1.56,-9.06
325181.828000,0.422,-0.434,-0.633,-39.09,-5.95,1.1
325181.843000,0.444,-0.477,-0.638,-32.99,-11.05,6.96
325181.859000,0.485,-0.52,-0.648,-24.6,-14.68,8.97
325181.859000,0.508,-0.528,-0.681,-18.8,-17.06,6.29
325181.859000,0.515,-0.505,-0.698,-14.34,-17.06,-0.31
325181.890000,0.536,-0.492,-0.697,-13.0,-15.32,-6.74
325181.890000,0.542,-0.465,-0.664,-11.57,-11.72,-11.9
325181.906000,0.538,-0.413,-0.649,-8.33,-9.16,-15.59
325181.906000,0.544,-0.372,-0.66,-7.69,-6.23,-17.06
325181.921000,0.545,-0.347,-0.657,-11.47,-1.89,-16.91
325181.937000,0.519,-0.335,-0.626,-18.16,1.83,-14.98
325181.937000,0.476,-0.345,-0.62,-22.95,0.64,-12.02
325181.953000,0.467,-0.377,-0.626,-23.62,-4.85,-7.81
325181.968000,0.476,-0.4,-0.636,-21.58,-12.24,-4.3
325181.968000,0.495,-0.403,-0.685,-17.12,-19.44,-2.5
325181.984000,0.517,-0.398,-0.726,-14.22,-23.5,-2.04
325182.000000,0.552,-0.381,-0.776,-14.04,-24.41,-2.56
325182.000000,0.597,-0.394,-0.835,-18.65,-20.36,-3.36
325182.015000,0.616,-0.427,-0.799,-24.41,-9.13,-6.1
325182.015000,0.616,-0.43,-0.726,-20.11,1.92,-11.14
325182.031000,0.588,-0.391,-0.682,-8.58,7.72,-15.72
325182.046000,0.577,-0.342,-0.67,-0.49,6.13,-17.58
325182.046000,0.592,-0.3,-0.683,1.98,1.92,-17.09
325182.062000,0.574,-0.276,-0.689,-2.35,-2.81,-14.31
325182.078000,0.569,-0.295,-0.675,-8.36,-8.42,-9.25
325182.078000,0.579,-0.317,-0.664,-8.61,-13.95,-4.06
325182.093000,0.595,-0.322,-0.7,-3.97,-17.73,0.49
325182.093000,0.621,-0.318,-0.75,-1.68,-17.79,3.78
325182.109000,0.65,-0.346,-0.794,-2.99,-12.76,5.74
325182.125000,0.649,-0.36,-0.781,-4.15,-3.36,4.33
325182.140000,0.643,-0.368,-0.761,-4.46,4.33,1.07
325182.140000,0.635,-0.357,-0.755,-4.18,10.62,-1.89
325182.156000,0.605,-0.363,-0.766,-5.31,15.75,-4.03
325182.156000,0.574,-0.389,-0.777,-7.87,17.7,-5.01
325182.171000,0.557,-0.412,-0.759,-8.33,17.52,-5.89
325182.187000,0.549,-0.446,-0.716,-4.06,16.82,-6.26
325182.187000,0.577,-0.452,-0.722,5.43,14.62,-7.05
325182.203000,0.593,-0.439,-0.73,14.01,14.77,-8.36
325182.218000,0.605,-0.414,-0.715,18.34,15.87,-10.22
325182.218000,0.614,-0.381,-0.733,18.25,16.75,-12.82
325182.234000,0.623,-0.366,-0.728,12.51,19.59,-14.8
325182.250000,0.634,-0.365,-0.699,6.07,23.74,-16.14
325182.265000,0.633,-0.358,-0.669,4.18,28.02,-17.49
325182.265000,0.629,-0.353,-0.636,4.85,30.3,-18.01
325182.265000,0.624,-0.335,-0.606,5.86,29.39,-18.19
325182.281000,0.628,-0.314,-0.598,7.51,26.0,-17.82
325182.296000,0.619,-0.283,-0.623,7.26,23.07,-16.69
325182.296000,0.595,-0.275,-0.632,3.48,20.78,-13.64
325182.312000,0.589,-0.291,-0.623,-0.92,18.13,-8.76
325182.328000,0.609,-0.34,-0.664,-0.95,17.18,-3.69
325182.328000,0.607,-0.355,-0.651,3.48,22.06,-0.73
325182.328000,0.617,-0.358,-0.639,9.7,24.78,-0.61
325182.343000,0.615,-0.347,-0.627,13.86,25.21,-2.23
325182.359000,0.61,-0.331,-0.583,14.44,22.52,-3.72
325182.375000,0.618,-0.315,-0.6,13.58,16.63,-4.73
325182.375000,0.619,-0.308,-0.612,9.16,13.86,-4.64
325182.390000,0.633,-0.318,-0.6,4.97,13.98,-3.91
325182.390000,0.651,-0.338,-0.635,2.81,16.75,-3.27
325182.406000,0.647,-0.351,-0.62,2.47,23.68,-3.97
325182.421000,0.643,-0.357,-0.623,4.12,27.31,-5.1
325182.437000,0.635,-0.35,-0.649,6.5,29.69,-5.55
325182.437000,0.64,-0.351,-0.628,8.03,32.14,-4.73
325182.453000,0.659,-0.358,-0.605,10.5,33.17,-3.42
325182.468000,0.682,-0.362,-0.606,13.12,34.3,-2.2
325182.468000,0.677,-0.356,-0.602,13.82,37.39,-1.31
325182.484000,0.702,-0.356,-0.639,11.11,39.55,-1.31
325182.484000,0.702,-0.367,-0.588,5.95,44.83,-2.38
325182.500000,0.707,-0.399,-0.588,6.13,49.68,-4.67
325182.515000,0.677,-0.384,-0.557,10.44,55.09,-7.72
325182.531000,0.702,-0.374,-0.549,16.3,55.24,-9.06
325182.531000,0.684,-0.351,-0.536,20.26,57.65,-8.76
325182.546000,0.683,-0.355,-0.499,19.87,54.35,-6.68
325182.546000,0.696,-0.365,-0.455,19.04,44.77,-4.33
325182.562000,0.725,-0.366,-0.467,19.53,33.63,-2.56
325182.578000,0.739,-0.355,-0.552,18.34,27.44,-1.83
325182.578000,0.769,-0.372,-0.617,12.12,29.05,-2.08
325182.593000,0.797,-0.393,-0.621,5.46,38.91,-4.15
325182.609000,0.808,-0.437,-0.629,5.01,53.53,-8.18
325182.625000,0.837,-0.432,-0.58,11.17,70.99,-14.83
325182.625000,0.783,-0.375,-0.494,16.02,83.74,-21.85
325182.640000,0.758,-0.343,-0.394,15.69,79.23,-24.96
325182.640000,0.785,-0.323,-0.333,13.52,64.55,-24.54
325182.656000,0.793,-0.303,-0.363,10.99,51.15,-20.11
325182.656000,0.792,-0.3,-0.417,10.62,45.11,-12.33
325182.671000,0.826,-0.322,-0.461,9.64,45.17,-5.55
325182.687000,0.841,-0.333,-0.508,8.73,52.37,-2.01
325182.687000,0.873,-0.36,-0.564,6.9,65.43,-2.14
325182.703000,0.845,-0.37,-0.479,3.6,81.79,-5.43
325182.718000,0.831,-0.388,-0.373,2.9,86.76,-8.79
325182.718000,0.792,-0.39,-0.291,5.77,80.14,-10.13
325182.734000,0.767,-0.38,-0.223,10.65,63.08,-7.72
325182.734000,0.793,-0.361,-0.242,16.48,41.11,-2.11
325182.750000,0.825,-0.351,-0.337,18.19,25.51,4.76
325182.765000,0.875,-0.406,-0.464,13.61,22.19,8.42
325182.765000,0.888,-0.445,-0.51,9.34,34.82,5.55
325182.781000,0.887,-0.49,-0.445,10.1,51.79,-1.5
325182.781000,0.885,-0.462,-0.437,17.7,66.07,-11.47
325182.796000,0.84,-0.412,-0.361,20.23,74.53,-20.08
325182.812000,0.861,-0.381,-0.316,17.3,72.02,-24.72
325182.812000,0.844,-0.352,-0.219,12.91,66.71,-25.57
325182.828000,0.861,-0.31,-0.263,9.09,56.49,-22.74
325182.843000,0.84,-0.298,-0.227,1.71,52.4,-15.56
325182.859000,0.857,-0.326,-0.237,-2.32,48.19,-7.9
325182.859000,0.877,-0.353,-0.242,0.21,48.34,-4.12
325182.875000,0.886,-0.355,-0.217,6.16,51.58,-4.97
325182.875000,0.885,-0.344,-0.198,10.35,51.42,-8.42
325182.890000,0.918,-0.323,-0.206,11.08,48.92,-13.06
325182.906000,0.904,-0.281,-0.214,7.72,49.47,-17.06
325182.906000,0.852,-0.274,-0.175,-0.67,48.31,-17.73
325182.906000,0.852,-0.286,-0.124,-7.6,39.77,-15.05
325182.937000,0.866,-0.288,-0.133,-7.48,31.04,-10.71
325182.937000,0.889,-0.288,-0.239,-4.24,27.95,-7.2
325182.937000,0.909,-0.297,-0.261,-2.23,34.42,-5.13
325182.953000,0.932,-0.298,-0.269,-0.64,43.21,-5.92
325182.953000,0.926,-0.301,-0.26,-3.48,50.23,-8.3
325182.968000,0.92,-0.318,-0.182,-6.04,55.64,-10.47
325182.984000,0.888,-0.319,-0.143,-4.76,54.23,-12.27
325183.000000,0.891,-0.327,-0.158,-3.33,47.64,-12.18
325183.015000,0.901,-0.322,-0.16,-2.9,44.83,-11.99
325183.031000,0.898,-0.307,-0.164,-3.78,44.16,-10.74
325183.031000,0.887,-0.33,-0.119,-4.64,44.22,-6.81
325183.046000,0.895,-0.328,-0.108,-1.46,40.77,-3.48
325183.046000,0.885,-0.321,-0.06,2.41,36.38,-0.55
325183.062000,0.906,-0.353,-0.057,4.36,26.22,2.53
325183.062000,0.933,-0.361,-0.135,7.87,18.34,-0.85
325183.078000,0.938,-0.364,-0.188,7.57,23.71,-4.58
325183.093000,0.963,-0.374,-0.238,3.05,31.56,-9.95
325183.109000,0.962,-0.358,-0.235,-1.43,38.15,-13.25
325183.109000,0.947,-0.349,-0.135,-1.74,37.2,-13.31
325183.109000,0.931,-0.34,-0.066,-0.58,31.98,-10.56
325183.140000,0.899,-0.322,-0.024,0.4,24.99,-6.35
325183.140000,0.915,-0.319,-0.046,1.25,18.68,-3.85
325183.156000,0.92,-0.316,-0.044,0.55,15.38,-3.23
325183.156000,0.932,-0.343,-0.064,-0.64,11.96,-4.12
325183.171000,0.945,-0.328,-0.11,0.03,12.39,-8.36
325183.171000,0.935,-0.315,-0.09,0.03,16.72,-12.39
325183.187000,0.916,-0.291,-0.055,1.22,19.68,-13.79
325183.203000,0.915,-0.267,-0.021,1.19,18.56,-12.33
325183.203000,0.894,-0.265,0.001,-1.89,14.47,-9.98
325183.218000,0.887,-0.267,0.022,-4.79,7.17,-7.69
325183.234000,0.884,-0.249,0.053,-4.79,-0.18,-4.0
325183.250000,0.894,-0.235,0.033,-5.28,-9.4,1.68
325183.250000,0.899,-0.221,-0.01,-9.22,-16.97,6.68
325183.250000,0.904,-0.276,-0.027,-14.1,-21.58,10.53
325183.265000,0.911,-0.305,-0.071,-11.14,-20.87,9.95
325183.265000,0.91,-0.318,-0.073,-5.98,-15.9,7.11
325183.281000,0.909,-0.323,-0.077,-5.31,-13.73,3.57
325183.296000,0.905,-0.323,-0.07,-9.52,-13.79,-0.34
325183.312000,0.908,-0.325,-0.046,-11.99,-14.25,-3.75
325183.312000,0.898,-0.28,-0.07,-11.08,-14.92,-5.37
325183.312000,0.889,-0.275,-0.026,-12.73,-15.14,-2.32
325183.328000,0.89,-0.281,0.019,-13.61,-19.23,2.38
325183.343000,0.899,-0.287,-0.014,-13.92,-26.09,6.07
325183.375000,0.902,-0.307,-0.037,-16.79,-29.42,7.9
325183.375000,0.911,-0.379,-0.047,-19.04,-30.12,7.08
325183.390000,0.922,-0.386,-0.086,-13.43,-26.89,2.47
325183.390000,0.935,-0.388,-0.081,-7.26,-22.19,-1.5
325183.406000,0.954,-0.384,-0.072,-5.74,-21.42,-4.91
325183.406000,0.971,-0.373,-0.103,-6.2,-22.58,-8.24
325183.421000,0.989,-0.357,-0.116,-8.06,-21.49,-10.65
325183.437000,1.001,-0.361,-0.1,-9.22,-19.14,-12.15
325183.437000,0.981,-0.354,-0.102,-8.64,-17.43,-12.97
325183.453000,0.998,-0.365,-0.101,-6.93,-17.12,-12.82
325183.468000,0.997,-0.338,-0.15,-3.69,-14.92,-14.44
325183.468000,0.996,-0.345,-0.139,-4.03,-13.09,-15.53
325183.484000,1.002,-0.334,-0.125,-3.78,-13.34,-16.17
325183.484000,0.996,-0.309,-0.144,-2.23,-13.09,-16.51
325183.500000,0.989,-0.315,-0.141,-4.36,-12.88,-16.02
325183.515000,0.986,-0.3,-0.159,-4.88,-13.25,-16.51
325183.515000,0.976,-0.296,-0.191,-5.25,-12.76,-16.6
325183.531000,0.958,-0.294,-0.215,-6.53,-12.57,-15.81
325183.546000,0.944,-0.296,-0.262,-6.23,-13.28,-13.61
325183.546000,0.943,-0.293,-0.29,-4.33,-12.05,-10.1
325183.562000,0.946,-0.296,-0.303,-2.81,-10.13,-6.29
325183.562000,0.95,-0.306,-0.336,-1.19,-7.87,-4.24
325183.578000,0.94,-0.305,-0.349,1.13,-3.27,-4.64
325183.593000,0.92,-0.29,-0.34,1.98,1.89,-5.28
325183.593000,0.909,-0.304,-0.309,0.79,4.36,-4.91
325183.609000,0.899,-0.294,-0.318,0.85,4.39,-5.52
325183.625000,0.894,-0.29,-0.317,1.34,5.68,-5.89
325183.640000,0.893,-0.278,-0.311,3.23,7.75,-5.58
325183.640000,0.895,-0.271,-0.308,4.76,8.85,-4.64
325183.656000,0.896,-0.276,-0.318,4.49,8.97,-4.64
325183.656000,0.895,-0.277,-0.311,4.91,10.04,-4.76
325183.671000,0.9,-0.274,-0.312,7.23,11.6,-4.76
325183.687000,0.899,-0.268,-0.301,8.09,13.25,-5.22
325183.687000,0.893,-0.262,-0.272,7.66,14.4,-5.65
325183.703000,0.892,-0.252,-0.246,7.97,14.4,-5.71
325183.703000,0.897,-0.24,-0.245,6.99,13.21,-6.16
325183.718000,0.906,-0.231,-0.245,4.15,11.99,-7.29
325183.718000,0.906,-0.232,-0.238,1.71,11.32,-8.03
325183.734000,0.906,-0.239,-0.228,0.92,11.23,-7.75
325183.750000,0.911,-0.236,-0.231,4.82,12.79,-7.93
325183.765000,0.911,-0.227,-0.235,8.18,14.83,-8.94
325183.765000,0.903,-0.22,-0.231,6.35,14.89,-9.67
325183.765000,0.904,-0.232,-0.241,2.32,13.21,-10.07
325183.781000,0.914,-0.236,-0.254,0.73,11.78,-10.77
325183.796000,0.934,-0.224,-0.279,1.77,11.35,-11.44
325183.812000,0.958,-0.214,-0.306,0.85,10.47,-11.9
325183.812000,0.98,-0.204,-0.354,-1.04,9.37,-12.7
325183.828000,0.997,-0.184,-0.392,-0.95,11.69,-13.73
325183.828000,1.0,-0.167,-0.4,0.21,16.39,-13.67
325183.859000,0.989,-0.143,-0.406,1.01,20.48,-11.54
325183.859000,0.973,-0.142,-0.393,-0.79,22.43,-7.87
325183.859000,0.951,-0.16,-0.407,-3.63,22.46,-4.43
325183.890000,0.922,-0.191,-0.394,-6.81,22.49,-0.37
325183.890000,0.902,-0.232,-0.376,-9.89,20.45,3.27
325183.906000,0.905,-0.268,-0.348,-13.31,16.14,5.34
325183.921000,0.919,-0.292,-0.296,-17.18,10.74,3.81
325183.921000,0.925,-0.319,-0.284,-18.07,6.87,-1.31
325183.937000,0.96,-0.308,-0.346,-8.21,10.59,-10.38
325183.937000,0.961,-0.222,-0.372,0.76,22.13,-21.42
325183.953000,0.927,-0.179,-0.351,-1.16,30.03,-28.57
325183.968000,0.877,-0.17,-0.314,-8.3,30.0,-29.21
325183.968000,0.843,-0.196,-0.264,-11.54,26.12,-24.05
325183.984000,0.833,-0.2,-0.243,-8.45,21.45,-16.6
325184.000000,0.865,-0.188,-0.176,-6.93,17.0,-10.62
325184.000000,0.925,-0.218,-0.166,-8.24,11.87,-9.37
325184.015000,0.975,-0.196,-0.219,-1.5,14.92,-14.1
325184.015000,0.987,-0.149,-0.241,3.39,22.86,-19.87
325184.031000,0.974,-0.132,-0.258,-2.56,27.07,-23.38
325184.046000,0.937,-0.132,-0.207,-6.41,30.7,-24.29
325184.046000,0.883,-0.1,-0.194,-3.14,32.96,-22.13
325184.062000,0.852,-0.061,-0.163,-1.95,33.81,-15.44
325184.062000,0.871,-0.092,-0.119,-5.74,31.04,-5.01
325184.078000,0.926,-0.119,-0.082,-9.4,24.41,4.36
325184.093000,0.985,-0.159,-0.035,-10.93,17.49,10.74
325184.109000,1.009,-0.205,-0.031,-11.63,11.2,14.1
325184.109000,1.022,-0.231,-0.076,-9.61,8.67,13.67
325184.109000,1.004,-0.223,-0.127,-4.55,13.4,9.77
325184.140000,0.959,-0.189,-0.177,-0.79,21.85,6.35
325184.140000,0.92,-0.165,-0.143,-3.11,28.57,5.95
325184.140000,0.909,-0.192,-0.08,-7.63,29.15,8.24
325184.156000,0.927,-0.23,-0.017,-6.65,26.89,11.38
325184.171000,0.961,-0.248,0.032,1.04,27.07,14.31
325184.171000,0.997,-0.237,0.057,4.91,26.73,15.56
325184.187000,1.006,-0.227,0.087,1.19,24.26,13.18
325184.203000,0.988,-0.229,0.088,-4.06,19.93,8.55
325184.218000,0.965,-0.212,0.073,-4.18,18.16,4.15
325184.218000,0.936,-0.193,0.039,-1.1,20.08,0.61
325184.218000,0.896,-0.186,0.016,0.15,22.68,-0.12
325184.234000,0.863,-0.187,0.031,-0.24,24.81,1.19
325184.234000,0.836,-0.19,0.037,-2.75,24.54,3.39
325184.250000,0.84,-0.224,0.078,-6.35,22.31,6.99
325184.281000,0.856,-0.262,0.096,-6.62,18.34,9.55
325184.281000,0.882,-0.282,0.074,-6.23,12.7,9.19
325184.296000,0.894,-0.254,0.044,-8.39,8.45,5.16
325184.312000,0.898,-0.246,0.028,-13.52,5.28,2.04
325184.312000,0.917,-0.24,0.045,-14.92,5.62,-0.52
325184.328000,0.919,-0.22,0.007,-10.62,8.18,-3.3
325184.343000,0.923,-0.201,0.005,-6.78,11.14,-3.69
325184.343000,0.913,-0.196,0.01,-4.36,14.22,-3.51
325184.359000,0.907,-0.205,0.03,-3.14,15.05,-2.26
325184.359000,0.907,-0.214,0.06,-0.98,14.01,-1.04
325184.375000,0.895,-0.208,0.018,-0.52,10.74,0.58
325184.375000,0.889,-0.205,0.01,-6.47,6.84,4.79
325184.390000,0.902,-0.244,0.045,-10.16,5.01,9.86
325184.406000,0.92,-0.282,0.039,-8.27,2.87,12.67
325184.406000,0.938,-0.29,0.05,-2.62,3.11,11.63
325184.421000,0.939,-0.286,0.041,1.46,5.92,7.66
325184.437000,0.949,-0.283,0.066,0.49,8.64,2.32
325184.437000,0.949,-0.271,0.1,-0.46,10.9,-4.15
325184.453000,0.943,-0.239,0.108,-2.69,9.06,-8.7
325184.453000,0.953,-0.207,0.122,-4.15,6.5,-9.92
325184.468000,0.949,-0.171,0.105,-5.58,3.48,-8.24
325184.468000,0.952,-0.159,0.119,-8.06,0.92,-4.06
325184.484000,0.955,-0.167,0.096,-10.9,-2.81,0.82
325184.515000,0.973,-0.205,0.093,-13.86,-6.93,5.58
325184.515000,0.993,-0.232,0.103,-9.16,-7.72,7.57
325184.531000,0.993,-0.224,0.083,0.24,-5.16,7.69
325184.531000,0.997,-0.229,0.118,4.39,-0.49,7.72
325184.531000,1.002,-0.253,0.122,5.13,1.77,5.89
325184.546000,1.007,-0.263,0.101,2.35,1.8,2.35
325184.546000,0.999,-0.275,0.114,-1.56,2.2,-1.16
325184.562000,0.986,-0.26,0.096,-4.15,0.49,-2.26
325184.578000,0.981,-0.231,0.098,-4.94,0.12,-0.49
325184.593000,0.976,-0.217,0.11,-3.97,1.5,3.6
325184.609000,0.986,-0.211,0.138,-1.92,2.56,7.75
325184.609000,0.99,-0.2,0.137,0.12,2.75,8.85
325184.625000,0.986,-0.193,0.12,-1.86,1.89,8.15
325184.640000,0.983,-0.206,0.164,-5.86,1.83,7.35
325184.640000,0.958,-0.21,0.209,-1.13,3.66,6.47
325184.656000,0.946,-0.198,0.201,-2.59,3.39,7.45
325184.656000,0.954,-0.186,0.172,-7.42,3.48,8.27
325184.671000,0.971,-0.212,0.165,-10.53,2.41,7.45
325184.671000,1.006,-0.224,0.127,-11.38,3.27,5.98
325184.687000,1.029,-0.217,0.091,-11.87,6.5,5.65
325184.703000,1.015,-0.211,0.114,-10.47,10.1,6.47
325184.703000,0.997,-0.218,0.157,-8.12,13.06,7.9
325184.718000,0.984,-0.219,0.202,-5.25,14.01,8.88
325184.734000,0.976,-0.224,0.212,-3.23,13.37,9.46
325184.750000,0.961,-0.233,0.199,-3.42,13.0,9.34
325184.750000,0.952,-0.237,0.185,-6.1,11.63,9.22
325184.765000,0.949,-0.246,0.175,-10.53,8.39,9.95
325184.765000,0.953,-0.271,0.161,-12.79,5.55,11.32
325184.781000,0.966,-0.285,0.138,-11.75,3.17,11.78
325184.796000,0.976,-0.287,0.103,-9.49,2.99,11.02
325184.812000,0.99,-0.306,0.084,-8.51,3.72,10.44
325184.812000,0.998,-0.309,0.064,-5.55,5.92,9.34
325184.812000,1.002,-0.313,0.07,-2.69,9.19,8.24
325184.828000,0.991,-0.305,0.094,-1.37,11.47,6.99
325184.843000,0.972,-0.293,0.119,-1.01,12.09,6.16
325184.843000,0.958,-0.285,0.135,-1.62,10.83,6.07
325184.859000,0.953,-0.287,0.131,-2.17,9.28,5.77
325184.859000,0.956,-0.292,0.113,-3.05,7.11,5.13
325184.875000,0.957,-0.288,0.093,-3.57,6.2,4.24
325184.890000,0.957,-0.289,0.077,-4.09,5.55,3.54
325184.890000,0.95,-0.266,0.081,-3.17,5.98,2.81
325184.906000,0.942,-0.254,0.097,-1.16,7.51,2.56
325184.921000,0.941,-0.241,0.104,0.98,7.45,2.93
325184.921000,0.939,-0.227,0.111,4.3,8.0,3.48
325184.937000,0.941,-0.227,0.101,4.64,8.15,3.88
325184.953000,0.941,-0.231,0.12,1.13,7.63,3.63
325184.953000,0.93,-0.238,0.13,-1.46,7.08,2.78
325184.968000,0.917,-0.235,0.15,-2.17,6.23,2.38
325184.984000,0.906,-0.23,0.151,-1.59,4.52,2.62
325185.000000,0.905,-0.239,0.136,-3.11,1.59,3.27
325185.000000,0.907,-0.245,0.137,-5.49,-1.13,3.51
325185.000000,0.91,-0.253,0.142,-5.62,-2.44,3.48
325185.015000,0.916,-0.258,0.129,-3.94,-3.14,3.17
325185.031000,0.923,-0.26,0.114,-2.69,-3.63,2.44
325185.031000,0.93,-0.256,0.09,-3.11,-4.43,1.89
325185.046000,0.935,-0.26,0.077,-5.01,-5.16,2.14
325185.062000,0.936,-0.27,0.079,-4.82,-4.82,2.53
325185.062000,0.932,-0.277,0.083,-3.48,-5.01,2.84
325185.078000,0.935,-0.281,0.076,-2.26,-5.74,3.2
325185.078000,0.936,-0.285,0.08,-2.2,-6.04,3.51
325185.093000,0.945,-0.291,0.081,-2.23,-5.86,3.39
325185.109000,0.962,-0.287,0.071,-2.84,-5.65,1.83
325185.125000,0.965,-0.278,0.074,-4.12,-4.97,-0.06
325185.140000,0.964,-0.274,0.072,-4.85,-4.85,-0.61
325185.140000,0.964,-0.278,0.071,-3.14,-4.21,0.31
325185.140000,0.964,-0.274,0.074,-0.27,-2.72,1.34
325185.156000,0.97,-0.272,0.075,1.59,-1.62,2.23
325185.171000,0.973,-0.276,0.069,0.03,-2.14,2.17
325185.187000,0.971,-0.28,0.07,-2.11,-2.81,1.8
325185.187000,0.963,-0.282,0.07,-2.59,-2.75,1.98
325185.203000,0.962,-0.292,0.069,-1.34,-2.66,3.08
325185.218000,0.964,-0.294,0.057,-0.15,-3.14,3.63
325185.234000,0.967,-0.303,0.045,-0.06,-2.96,3.11
325185.234000,0.969,-0.306,0.04,0.09,-1.62,1.4
325185.250000,0.963,-0.304,0.038,0.98,0.24,-0.24
325185.250000,0.957,-0.294,0.041,3.02,1.34,-0.98
325185.265000,0.954,-0.276,0.054,4.21,1.8,-0.98
325185.265000,0.95,-0.27,0.064,4.33,1.16,-0.27
325185.281000,0.946,-0.267,0.066,5.1,0.79,0.21
325185.296000,0.951,-0.271,0.045,5.43,0.49,0.46
325185.296000,0.955,-0.273,0.044,4.55,1.01,-0.09
325185.312000,0.95,-0.269,0.049,3.69,1.86,-0.82
325185.312000,0.949,-0.267,0.056,2.72,2.14,-1.04
325185.328000,0.948,-0.266,0.057,2.38,1.4,-0.79
325185.343000,0.945,-0.26,0.052,3.42,0.61,0.06
325185.343000,0.947,-0.264,0.048,2.99,0.24,0.98
325185.359000,0.95,-0.276,0.058,1.74,-0.21,1.07
325185.375000,0.955,-0.279,0.046,2.53,-0.67,0.31
325185.390000,0.958,-0.271,0.024,3.36,-0.37,-0.73
325185.390000,0.964,-0.269,0.017,2.53,0.82,-1.34
325185.406000,0.965,-0.266,0.026,2.14,3.05,-2.2
325185.406000,0.958,-0.26,0.035,1.56,4.49,-2.66
325185.421000,0.953,-0.251,0.037,2.47,5.28,-1.98
325185.421000,0.947,-0.239,0.053,3.14,5.49,-0.24
325185.437000,0.947,-0.244,0.07,3.02,4.58,1.77
325185.453000,0.948,-0.25,0.065,2.81,2.84,3.05
325185.453000,0.954,-0.251,0.048,1.31,1.68,3.2
325185.468000,0.95,-0.257,0.049,-0.37,2.41,2.5
325185.484000,0.941,-0.265,0.063,-0.73,3.63,1.68
325185.484000,0.931,-0.262,0.074,1.59,4.58,1.16
325185.500000,0.934,-0.257,0.07,3.36,4.55,1.13
325185.515000,0.948,-0.262,0.056,3.14,3.69,1.01
325185.515000,0.958,-0.264,0.029,1.62,3.45,-0.21
325185.531000,0.958,-0.257,0.03,-0.55,5.65,-1.37
325185.546000,0.953,-0.253,0.061,-1.86,7.87,-1.31
325185.546000,0.952,-0.239,0.078,-1.86,7.78,-0.52
325185.562000,0.95,-0.23,0.077,-1.71,6.9,1.13
325185.562000,0.952,-0.231,0.088,-3.14,5.83,3.27
325185.578000,0.958,-0.236,0.084,-4.03,4.33,4.88
325185.593000,0.963,-0.236,0.076,-4.18,3.48,5.98
325185.609000,0.961,-0.235,0.083,-5.1,3.54,6.32
325185.609000,0.959,-0.235,0.088,-6.13,3.78,5.95
325185.625000,0.957,-0.233,0.066,-6.5,4.18,5.31
325185.640000,0.954,-0.231,0.057,-8.64,5.62,4.73
325185.640000,0.949,-0.247,0.083,-11.14,6.96,4.61
325185.656000,0.941,-0.252,0.082,-10.38,6.2,4.94
325185.671000,0.935,-0.25,0.054,-8.91,5.37,6.38
325185.671000,0.943,-0.27,0.044,-9.28,5.86,8.15
325185.671000,0.948,-0.299,0.044,-9.16,7.08,8.03
325185.671000,0.949,-0.313,0.04,-8.76,7.9,5.98
325185.703000,0.946,-0.319,0.038,-9.37,8.42,3.36
325185.718000,0.936,-0.31,0.052,-9.43,8.79,1.56
325185.718000,0.929,-0.306,0.06,-7.81,8.94,1.53
325185.734000,0.929,-0.3,0.058,-5.71,9.16,2.72
325185.750000,0.926,-0.3,0.06,-5.01,9.06,4.03
325185.750000,0.926,-0.305,0.073,-4.85,8.33,5.04
325185.765000,0.927,-0.302,0.075,-4.27,7.29,5.25
325185.765000,0.926,-0.292,0.074,-4.64,6.68,5.13
325185.781000,0.937,-0.293,0.092,-5.89,5.98,4.79
325185.796000,0.938,-0.282,0.104,-5.13,4.97,3.94
325185.796000,0.947,-0.261,0.083,-1.25,4.82,3.81
325185.812000,0.963,-0.237,0.064,1.28,6.32,3.91
325185.828000,0.973,-0.223,0.079,1.92,8.39,3.97
325185.828000,0.983,-0.2,0.091,4.49,9.67,4.85
325185.843000,0.99,-0.16,0.094,8.48,10.8,7.45
325185.843000,0.99,-0.11,0.112,12.36,11.96,13.55
325185.859000,0.977,-0.072,0.167,17.94,11.69,24.38
325185.875000,0.967,-0.043,0.215,29.02,8.42,41.23
325185.875000,0.974,-0.03,0.232,44.8,2.47,63.42
325185.890000,0.997,-0.045,0.216,62.84,-4.49,87.44
325185.890000,1.034,-0.076,0.166,80.08,-8.88,110.14
325185.921000,1.08,-0.111,0.089,92.04,-9.43,126.56
325185.921000,1.116,-0.15,-0.043,91.65,-7.45,135.38
325185.937000,1.114,-0.228,-0.044,76.91,0.21,138.86
325185.937000,1.104,-0.346,0.027,68.91,10.5,137.58
325185.953000,1.077,-0.385,0.041,75.26,20.26,132.66
325185.953000,1.051,-0.389,0.052,83.99,30.95,127.17
325185.968000,1.021,-0.388,0.089,88.23,40.65,121.77
325185.984000,0.983,-0.411,0.134,91.49,46.78,117.01
325185.984000,0.941,-0.369,0.089,95.13,49.75,113.96
325186.000000,0.882,-0.298,0.065,85.73,53.13,115.85
325186.015000,0.847,-0.318,0.104,69.34,56.86,123.2
325186.015000,0.806,-0.367,0.11,55.42,58.32,133.37
325186.031000,0.766,-0.457,0.128,47.67,60.06,144.9
325186.046000,0.727,-0.529,0.236,53.56,62.69,157.87
325186.062000,0.689,-0.584,0.291,76.78,62.2,173.92
325186.062000,0.646,-0.62,0.298,104.59,59.39,191.29
325186.062000,0.611,-0.652,0.307,125.49,55.57,208.26
325186.078000,0.594,-0.717,0.349,145.7,53.53,221.93
325186.093000,0.578,-0.749,0.358,167.09,53.22,229.62
325186.093000,0.561,-0.763,0.323,179.85,54.29,231.3
325186.125000,0.521,-0.795,0.326,179.75,57.28,228.31
325186.125000,0.47,-0.815,0.359,177.16,61.25,223.52
325186.140000,0.413,-0.822,0.385,174.75,65.16,217.26
325186.156000,0.371,-0.821,0.459,174.23,69.58,209.6
325186.156000,0.317,-0.814,0.503,174.93,72.39,200.35
325186.171000,0.274,-0.834,0.59,172.34,72.24,189.03
325186.171000,0.251,-0.812,0.673,176.06,69.25,175.18
325186.187000,0.199,-0.745,0.694,179.82,63.81,161.96
325186.187000,0.16,-0.719,0.679,178.72,57.37,155.1
325186.187000,0.124,-0.702,0.664,173.59,53.74,151.1
325186.218000,0.095,-0.71,0.744,167.61,49.29,142.7
325186.218000,0.088,-0.681,0.775,163.73,45.96,135.69
325186.234000,0.085,-0.654,0.764,151.01,43.79,125.43
325186.250000,0.072,-0.62,0.767,131.87,40.77,112.52
325186.250000,0.055,-0.622,0.802,116.82,37.05,98.45
325186.265000,0.04,-0.613,0.835,107.12,34.0,85.82
325186.281000,0.045,-0.591,0.821,100.96,32.59,73.52
325186.281000,0.047,-0.554,0.801,92.59,33.91,61.19
325186.296000,0.045,-0.536,0.83,79.65,35.55,49.44
325186.296000,0.038,-0.522,0.88,65.98,35.0,37.63
325186.312000,0.012,-0.51,0.954,57.77,31.92,28.9
325186.328000,0.001,-0.468,0.932,57.07,25.18,25.15
325186.328000,-0.006,-0.443,0.901,52.67,19.53,25.85
325186.343000,-0.001,-0.453,0.904,45.01,16.08,28.75
325186.359000,0.006,-0.452,0.909,39.8,13.86,30.73
325186.359000,0.021,-0.455,0.897,35.19,11.96,30.98
325186.375000,0.037,-0.464,0.896,28.75,11.32,29.66
325186.375000,0.052,-0.466,0.897,24.45,10.53,26.73
325186.390000,0.059,-0.465,0.892,18.52,9.16,22.25
325186.406000,0.063,-0.498,0.92,11.99,7.54,17.12
325186.406000,0.066,-0.507,0.928,12.48,5.13,11.54
325186.421000,0.076,-0.499,0.909,17.21,2.72,6.38
325186.421000,0.078,-0.476,0.869,18.13,1.56,1.95
325186.437000,0.079,-0.473,0.85,14.8,2.69,-0.18
325186.453000,0.072,-0.469,0.847,10.68,4.58,-0.92
325186.468000,0.073,-0.47,0.857,6.47,6.65,0.24
325186.468000,0.087,-0.475,0.858,2.08,7.66,1.22
325186.468000,0.088,-0.496,0.873,-3.17,8.12,0.34
325186.484000,0.088,-0.512,0.893,-4.82,8.15,-1.62
325186.500000,0.099,-0.495,0.865,-4.0,7.14,-4.27
325186.515000,0.106,-0.489,0.846,-6.93,7.45,-6.5
325186.515000,0.1,-0.513,0.868,-10.8,8.7,-8.36
325186.531000,0.092,-0.526,0.895,-7.32,9.43,-8.67
325186.531000,0.089,-0.516,0.898,-1.5,8.48,-8.51
325186.546000,0.087,-0.501,0.886,2.56,6.93,-7.66
325186.562000,0.088,-0.482,0.871,4.21,6.01,-5.28
325186.562000,0.09,-0.483,0.876,3.42,5.89,-2.01
325186.593000,0.093,-0.484,0.886,4.58,5.95,0.79
325186.593000,0.093,-0.467,0.869,4.94,5.77,2.35
325186.609000,0.091,-0.455,0.861,0.98,6.13,2.44
325186.609000,0.079,-0.454,0.881,-4.49,7.14,1.34
325186.625000,0.067,-0.459,0.901,-6.93,7.6,0.24
325186.640000,0.062,-0.447,0.89,-7.6,6.68,-0.58
325186.640000,0.061,-0.455,0.888,-9.92,6.29,-0.76
325186.656000,0.058,-0.48,0.897,-10.65,6.01,-0.18
325186.671000,0.064,-0.481,0.891,-7.39,5.28,0.79
325186.671000,0.069,-0.483,0.882,-6.23,4.46,1.53
325186.687000,0.065,-0.491,0.898,-5.16,3.78,1.74
325186.687000,0.057,-0.468,0.893,-2.56,2.75,1.46
325186.703000,0.047,-0.454,0.879,-2.9,1.74,2.75
325186.718000,0.049,-0.462,0.881,-4.21,1.25,5.4
325186.718000,0.056,-0.46,0.869,-5.71,0.92,7.26
325186.734000,0.058,-0.466,0.88,-8.24,1.46,9.16
325186.750000,0.057,-0.474,0.895,-8.12,1.16,11.11
325186.750000,0.061,-0.469,0.888,-5.74,0.21,12.33
325186.765000,0.056,-0.455,0.896,-2.96,-0.4,13.09
325186.781000,0.051,-0.421,0.883,-1.19,-1.19,13.79
325186.781000,0.045,-0.397,0.866,-2.99,-1.28,15.08
325186.796000,0.031,-0.38,0.882,-5.71,-0.34,17.12
325186.796000,0.006,-0.36,0.919,-7.23,-0.43,20.2
325186.812000,-0.022,-0.336,0.951,-5.89,-2.5,25.36
325186.812000,-0.052,-0.3,0.97,-1.68,-5.98,33.08
325186.828000,-0.062,-0.276,0.96,2.9,-9.95,43.15
325186.843000,-0.042,-0.282,0.947,4.73,-13.89,53.96
325186.859000,-0.008,-0.322,0.905,2.17,-17.7,62.99
325186.859000,0.031,-0.381,0.855,-2.38,-18.19,67.72
325186.875000,0.057,-0.416,0.861,-4.76,-15.41,67.42
325186.890000,0.061,-0.416,0.856,-6.9,-13.58,64.03
325186.890000,0.045,-0.412,0.866,-10.19,-11.81,60.37
325186.890000,0.01,-0.403,0.891,-9.61,-10.53,59.42
325186.906000,-0.027,-0.387,0.915,-5.28,-10.86,62.72
325186.921000,-0.046,-0.386,0.933,0.31,-12.36,69.31
325186.921000,-0.042,-0.399,0.952,6.2,-15.11,78.43
325186.937000,-0.046,-0.416,0.934,11.9,-19.14,87.34
325186.953000,-0.029,-0.445,0.845,12.6,-19.68,93.75
325186.953000,-0.019,-0.492,0.829,8.36,-14.19,96.5
325186.968000,-0.043,-0.534,0.883,7.72,-8.33,96.19
325186.968000,-0.063,-0.534,0.927,12.63,-5.8,94.97
325187.000000,-0.062,-0.524,0.899,17.09,-6.1,93.05
325187.000000,-0.065,-0.52,0.883,14.44,-6.41,88.6
325187.000000,-0.085,-0.523,0.902,9.28,-5.46,84.17
325187.015000,-0.102,-0.531,0.913,7.05,-4.76,81.12
325187.031000,-0.101,-0.547,0.908,5.58,-4.43,79.68
325187.031000,-0.09,-0.567,0.882,3.6,-3.08,78.25
325187.046000,-0.077,-0.587,0.869,1.43,-0.79,75.38
325187.046000,-0.076,-0.594,0.884,-1.16,1.25,70.86
325187.078000,-0.077,-0.586,0.891,-1.86,2.04,65.0
325187.078000,-0.084,-0.572,0.859,-2.04,2.66,59.39
325187.093000,-0.101,-0.567,0.847,-3.81,4.27,55.27
325187.109000,-0.109,-0.56,0.853,-4.06,6.26,52.89
325187.109000,-0.123,-0.552,0.849,-4.15,7.78,51.55
325187.125000,-0.133,-0.553,0.873,-4.27,8.76,51.48
325187.140000,-0.15,-0.558,0.894,-2.72,7.84,52.86
325187.140000,-0.173,-0.563,0.884,0.82,6.16,56.34
325187.156000,-0.172,-0.567,0.866,3.85,5.1,60.85
325187.171000,-0.15,-0.584,0.857,3.14,4.36,62.9
325187.171000,-0.127,-0.604,0.844,-0.76,3.85,60.12
325187.187000,-0.11,-0.62,0.814,-6.07,3.6,52.71
325187.187000,-0.1,-0.648,0.788,-12.45,4.88,43.52
325187.187000,-0.108,-0.655,0.802,-17.06,7.51,35.71
325187.218000,-0.118,-0.643,0.833,-17.58,8.64,30.95
325187.218000,-0.127,-0.627,0.822,-14.8,8.27,29.48
325187.234000,-0.141,-0.605,0.804,-12.39,8.45,29.57
325187.250000,-0.162,-0.592,0.82,-10.5,9.98,31.04
325187.250000,-0.174,-0.581,0.828,-6.68,10.04,33.42
325187.265000,-0.167,-0.571,0.805,-5.86,8.3,35.43
325187.265000,-0.156,-0.584,0.786,-9.25,7.14,36.07
325187.281000,-0.146,-0.603,0.781,-13.49,7.29,34.49
325187.296000,-0.156,-0.615,0.794,-16.17,8.15,32.07
325187.296000,-0.162,-0.617,0.796,-15.53,8.67,30.09
325187.312000,-0.153,-0.615,0.775,-14.92,8.48,27.83
325187.312000,-0.15,-0.623,0.768,-17.64,8.58,25.27
325187.328000,-0.153,-0.628,0.776,-19.47,8.82,22.71
325187.343000,-0.156,-0.627,0.778,-18.1,8.48,21.03
325187.359000,-0.149,-0.62,0.773,-15.9,8.3,20.42
325187.359000,-0.146,-0.606,0.758,-14.89,9.09,19.75
325187.375000,-0.169,-0.611,0.783,-14.68,11.08,20.02
325187.375000,-0.181,-0.61,0.821,-10.68,12.42,21.61
325187.390000,-0.186,-0.592,0.827,-6.23,11.84,22.52
325187.406000,-0.189,-0.586,0.824,-5.1,11.08,22.19
325187.406000,-0.191,-0.582,0.847,-6.96,9.58,21.06
325187.421000,-0.189,-0.569,0.874,-7.39,10.25,19.87
325187.421000,-0.192,-0.559,0.862,-7.57,9.49,18.86
325187.437000,-0.188,-0.56,0.85,-9.58,8.97,18.1
325187.453000,-0.179,-0.594,0.86,-11.99,10.01,18.8
325187.453000,-0.17,-0.615,0.849,-9.4,9.52,18.01
325187.468000,-0.19,-0.616,0.856,-4.52,10.44,16.75
325187.468000,-0.216,-0.604,0.885,-0.03,11.08,17.0
325187.484000,-0.242,-0.58,0.905,4.52,9.19,18.68
325187.500000,-0.261,-0.554,0.919,7.87,5.89,20.84
325187.515000,-0.266,-0.531,0.91,10.71,3.02,22.95
325187.515000,-0.257,-0.51,0.889,11.32,2.2,24.23
325187.531000,-0.253,-0.496,0.9,8.24,2.29,24.2
325187.546000,-0.26,-0.495,0.919,4.67,0.24,23.56
325187.546000,-0.265,-0.491,0.905,2.32,-3.2,23.41
325187.562000,-0.261,-0.496,0.875,0.03,-5.62,23.41
325187.562000,-0.248,-0.5,0.85,-2.59,-6.01,22.64
325187.578000,-0.243,-0.512,0.838,-5.1,-3.85,20.78
325187.593000,-0.247,-0.529,0.85,-6.81,-0.95,18.65
325187.593000,-0.258,-0.537,0.875,-4.39,0.58,16.57
