t_monotonic,ax,ay,az,gx,gy,gz
1628858.558580,-0.745,-0.673,0.466,5.55,-4.79,5.68
1628858.603211,-0.756,-0.694,0.436,30.67,-15.5,-0.61
1628858.648657,-0.717,-0.665,0.417,51.09,-28.23,-20.84
1628858.688692,-0.703,-0.615,0.443,36.5,-37.39,-42.05
1628858.728788,-0.771,-0.619,0.455,23.41,-23.13,-42.3
1628858.773578,-0.665,-0.707,0.563,3.69,-30.85,-41.2
1628858.819529,-0.495,-0.762,0.605,-10.93,-79.2,-67.72
1628858.869290,-0.446,-0.907,0.838,38.0,-99.0,-38.76
1628858.909582,-0.509,-0.95,0.871,169.71,-162.72,20.05
1628858.952833,-0.34,-0.816,0.817,190.47,-199.07,37.32
1628858.999474,-0.132,-0.464,0.826,74.4,-144.14,-34.42
1628859.039890,-0.087,-0.361,0.937,-15.17,-122.04,-69.86
1628859.080329,-0.003,-0.339,0.897,-28.63,-109.78,-52.8
1628859.133595,0.084,-0.403,0.81,-39.77,-90.33,-41.57
1628859.179050,0.117,-0.434,0.719,-49.71,-77.91,-46.78
1628859.219094,0.184,-0.48,0.635,-66.59,-63.54,-44.8
1628859.259184,0.223,-0.516,0.584,-61.8,-47.98,-49.56
1628859.299332,0.276,-0.494,0.507,-51.85,-36.87,-39.0
1628859.339424,0.298,-0.501,0.499,-34.91,-22.98,-17.27
1628859.379643,0.339,-0.498,0.483,-2.47,-11.96,11.23
1628859.423759,0.411,-0.528,0.524,21.52,-1.4,27.86
1628859.468944,0.434,-0.569,0.664,35.16,25.15,39.09
1628859.509573,0.27,-0.672,0.879,32.72,60.12,36.38
1628859.559091,0.079,-0.664,1.024,8.33,23.01,3.45
1628859.604068,0.159,-0.574,0.927,-15.69,-17.37,-3.78
1628859.654063,0.275,-0.458,0.783,-6.44,-17.94,7.54
1628859.704224,0.281,-0.549,0.687,-20.84,-2.23,23.13
1628859.749757,0.351,-0.699,0.726,-20.11,-21.03,22.83
1628859.798998,0.306,-0.871,0.747,8.06,-3.2,28.75
1628859.843389,0.167,-0.919,0.819,0.58,4.06,12.91
1628859.890293,0.151,-0.782,0.783,-1.53,-30.0,-13.18
1628859.940479,0.241,-0.549,0.661,-1.13,-41.72,-15.41
1628859.990032,0.303,-0.492,0.632,-9.37,-27.19,6.96
1628860.030154,0.332,-0.532,0.647,-13.12,-11.78,21.06
1628860.071123,0.339,-0.584,0.666,-16.02,1.65,26.58
1628860.120719,0.321,-0.688,0.679,-17.49,14.28,23.35
1628860.173257,0.257,-0.772,0.735,-1.28,16.24,17.49
1628860.220703,0.206,-0.775,0.745,3.27,8.67,4.49
1628860.269776,0.205,-0.744,0.687,-6.78,-4.06,-1.68
1628860.320606,0.234,-0.757,0.629,-12.76,-3.02,-0.89
1628860.363774,0.244,-0.76,0.586,-9.25,-3.23,-1.46
1628860.409819,0.253,-0.761,0.554,4.06,-0.03,0.64
1628860.459521,0.227,-0.756,0.581,16.21,26.12,5.92
1628860.509714,0.195,-0.741,0.642,34.73,44.98,-1.22
1628860.560398,0.174,-0.689,0.68,48.16,58.32,-6.38
1628860.610384,0.17,-0.682,0.77,65.03,59.45,-10.38
1628860.663711,0.365,-0.617,0.863,162.97,96.29,6.96
1628860.710014,0.283,-0.266,1.105,197.88,165.17,27.04
1628860.755894,-0.057,0.021,1.464,130.13,112.89,13.25
1628860.803177,-0.505,0.192,1.405,7.32,-61.92,8.85
1628860.853658,-0.442,-0.042,1.067,-59.97,-113.93,6.62
1628860.899855,-0.052,-0.512,0.68,-81.06,-133.09,7.84
1628860.940007,0.175,-0.989,0.463,-104.04,-95.13,-41.84
1628860.980157,0.212,-1.021,0.342,-33.63,-88.5,-89.79
1628861.020841,0.15,-0.708,0.379,32.84,-32.72,-96.62
1628861.073243,0.097,-0.228,0.569,54.9,37.17,-106.14
1628861.113708,0.063,0.072,0.778,27.04,62.5,-92.56
1628861.153828,0.07,0.229,0.898,-18.68,69.43,-40.86
1628861.203726,0.091,0.161,1.0,-103.4,61.74,33.51
1628861.249986,0.192,-0.306,1.027,-176.12,45.17,90.0
1628861.290283,0.261,-0.681,1.11,-141.06,32.47,88.69
1628861.330397,0.215,-0.91,1.183,-57.19,31.5,80.32
1628861.383418,0.015,-0.861,1.219,37.23,-9.55,24.84
1628861.433923,-0.051,-0.726,1.0,34.39,-53.13,-11.05
1628861.479602,0.067,-0.753,0.765,-7.54,-64.91,-59.11
1628861.523851,0.132,-0.682,0.653,-6.5,-50.97,-80.81
1628861.569550,0.171,-0.52,0.592,6.74,-18.52,-60.7
1628861.613622,0.143,-0.427,0.634,12.54,-3.91,-27.68
1628861.660438,0.158,-0.384,0.643,-17.55,-10.93,17.24
1628861.700462,0.196,-0.397,0.646,-49.75,-12.36,24.84
1628861.750457,0.238,-0.484,0.625,-88.99,14.98,41.41
1628861.793388,0.19,-0.577,0.608,-135.38,47.73,48.59
1628861.833861,0.096,-0.672,0.764,-180.15,77.82,42.66
1628861.879994,-0.006,-0.691,0.931,-100.92,55.88,55.82
1628861.920367,-0.128,-0.607,0.856,-30.21,-19.62,78.89
1628861.973420,-0.302,-0.526,0.618,-20.94,-87.04,135.17
1628862.013834,-0.372,-0.718,0.567,-40.89,-91.62,180.55
1628862.060206,-0.521,-0.515,0.29,-86.18,-122.9,142.12
1628862.103543,-0.5,-0.67,0.211,-125.77,-95.65,185.49
1628862.150397,-0.763,-1.083,-0.111,-181.52,-76.33,210.24
1628862.193395,-0.61,-1.381,-0.003,-119.08,9.28,103.98
1628862.233658,-0.777,-1.252,-0.132,-57.95,10.74,102.11
1628862.279061,-0.587,-1.462,-0.103,30.52,-42.21,122.9
1628862.329664,-0.564,-1.185,-0.103,91.04,-10.74,63.72
1628862.380078,-0.552,-0.935,0.062,69.58,38.54,8.67
1628862.433297,-0.617,-0.77,0.183,34.3,69.64,-30.82
1628862.478883,-0.699,-0.696,0.257,1.92,70.41,-50.54
1628862.523365,-0.738,-0.685,0.289,-5.98,55.27,-40.59
1628862.573585,-0.73,-0.686,0.285,-1.19,24.72,-23.13
1628862.613608,-0.707,-0.671,0.271,-2.9,11.84,-21.61
1628862.660491,-0.673,-0.652,0.27,0.06,5.34,-18.71
1628862.710268,-0.638,-0.635,0.238,-10.96,2.78,-15.2
1628862.760491,-0.639,-0.648,0.232,-21.09,4.97,-5.98
1628862.805748,-0.656,-0.682,0.219,-25.85,1.1,5.28
1628862.849312,-0.698,-0.725,0.209,-20.33,-9.92,22.77
1628862.891387,-0.697,-0.786,0.189,-4.09,-28.9,35.25
1628862.939371,-0.642,-0.868,0.116,14.77,-51.88,44.37
1628862.979387,-0.626,-1.01,0.174,57.16,-62.87,36.04
1628863.019387,-0.665,-0.994,0.169,95.65,-84.38,12.82
1628863.069674,-0.617,-0.924,0.292,98.51,-73.0,-19.68
1628863.110186,-0.633,-0.87,0.483,109.26,-61.22,-38.97
1628863.154040,-0.636,-0.825,0.69,115.79,-86.46,-27.8
1628863.199548,-0.554,-0.723,0.919,156.96,-108.22,4.09
1628863.239918,-0.419,-0.579,1.191,151.52,-147.22,0.49
1628863.280422,-0.417,-0.45,1.203,75.84,-165.9,-23.26
1628863.333643,-0.355,-0.347,1.092,0.98,-183.42,-69.61
1628863.373687,-0.256,-0.225,0.843,16.11,-183.84,-55.76
1628863.420003,-0.128,-0.188,0.624,-5.62,-144.41,-48.22
1628863.472076,-0.032,-0.247,0.514,-10.74,-101.29,-33.36
1628863.523409,0.135,-0.302,0.517,-18.89,-35.83,-15.35
1628863.563626,0.048,-0.416,0.678,-41.75,15.11,-24.87
1628863.613574,0.153,-0.477,0.722,5.19,-5.52,10.32
1628863.663778,0.253,-0.479,0.682,24.75,16.66,4.09
1628863.713849,0.198,-0.431,0.851,18.1,25.06,-10.19
1628863.754989,0.169,-0.415,0.941,15.02,16.94,0.92
1628863.800305,0.189,-0.339,0.937,-1.28,-0.82,5.46
1628863.849956,0.2,-0.355,1.009,-31.62,-8.48,3.14
1628863.899937,0.173,-0.361,0.977,-26.52,-23.53,17.21
1628863.939956,0.197,-0.426,0.916,-43.21,-32.78,23.56
1628863.993100,0.33,-0.613,0.774,-58.05,-30.12,8.0
1628864.043327,0.323,-0.683,0.745,-17.55,-4.91,2.81
1628864.093241,0.216,-0.503,0.866,26.95,-50.6,23.53
1628864.144303,0.233,-0.59,0.813,-29.85,11.44,-0.06
1628864.193257,0.063,-0.654,0.759,26.58,-13.64,16.88
1628864.233591,0.255,-0.493,0.907,72.94,-42.73,22.64
1628864.279620,0.367,-0.493,0.78,63.63,-32.17,7.63
1628864.323811,0.236,-0.428,0.887,34.39,-7.05,-13.43
1628864.369269,0.322,-0.344,0.857,7.26,-24.2,-16.51
1628864.409296,0.382,-0.376,0.797,-1.43,-11.57,-12.09
1628864.451931,0.356,-0.415,0.824,-28.38,-9.09,-8.61
1628864.500510,0.403,-0.408,0.795,-22.43,-4.36,-10.56
1628864.553798,0.422,-0.457,0.796,-38.76,24.9,-7.39
1628864.603668,0.301,-0.472,0.869,-38.27,27.53,-12.82
1628864.649537,0.286,-0.484,0.881,-26.83,20.11,2.38
1628864.693607,0.273,-0.544,0.869,-19.07,5.4,-0.98
1628864.740257,0.336,-0.485,0.817,-1.28,-20.72,1.04
1628864.789952,0.369,-0.483,0.805,-3.02,-27.74,-0.27
1628864.839632,0.379,-0.51,0.781,0.79,-14.59,5.74
1628864.883892,0.351,-0.516,0.808,1.56,-11.93,-0.61
1628864.933626,0.4,-0.496,0.748,4.33,-26.67,1.83
1628864.980306,0.403,-0.517,0.762,1.77,-1.13,5.77
1628865.030074,0.394,-0.517,0.772,11.32,15.23,12.21
1628865.070781,0.38,-0.489,0.783,26.12,13.76,4.27
1628865.120129,0.37,-0.49,0.77,29.69,13.89,4.73
1628865.169982,0.361,-0.499,0.758,16.69,15.66,-4.52
1628865.222555,0.381,-0.469,0.733,30.06,33.11,-6.96
1628865.270559,0.265,-0.457,0.873,61.4,14.59,-10.04
1628865.320647,0.269,-0.427,0.995,20.87,6.26,-16.48
1628865.373544,0.281,-0.437,0.997,35.49,-13.92,-20.33
1628865.413567,0.35,-0.256,0.87,52.77,-18.19,-14.44
1628865.463972,0.355,-0.188,0.883,-17.91,-4.61,-12.94
1628865.504022,0.359,-0.261,0.941,-43.58,-12.24,-21.52
1628865.549506,0.448,-0.201,0.681,-168.98,28.32,-41.38
1628865.589818,0.339,-0.49,0.849,-327.04,58.99,-88.08
1628865.630053,0.349,-0.622,0.657,-366.77,37.84,-95.0
1628865.670832,0.421,-0.789,0.47,-412.61,7.32,-103.24
1628865.723940,0.453,-0.852,0.248,-373.79,10.47,-95.25
1628865.770268,0.506,-0.864,0.024,-300.61,-32.75,-98.73
1628865.810427,0.475,-0.629,-0.075,-232.28,-44.19,-80.48
1628865.853710,0.696,-0.718,-0.443,-133.85,-56.43,-45.26
1628865.903934,0.639,-0.755,-0.468,39.95,5.07,-22.06
1628865.949811,0.643,-0.749,-0.339,45.44,-17.61,18.49
1628865.999379,0.692,-0.759,-0.41,40.93,-4.24,1.34
1628866.043693,0.646,-0.765,-0.408,29.08,11.26,-8.48
1628866.093656,0.639,-0.741,-0.284,18.8,8.67,4.58
1628866.140419,0.6,-0.74,-0.323,26.55,4.73,1.4
1628866.190364,0.579,-0.782,-0.243,9.03,16.02,-17.46
1628866.230703,0.584,-0.715,-0.283,10.47,25.82,-12.21
1628866.280652,0.613,-0.626,-0.219,-22.49,21.55,-0.67
1628866.330799,0.623,-0.629,-0.158,-11.6,15.59,-4.3
1628866.383551,0.634,-0.597,-0.208,-16.63,14.34,7.35
1628866.433855,0.658,-0.637,-0.232,17.18,74.31,-27.07
1628866.479782,0.756,-0.818,-0.353,107.06,72.18,-8.09
1628866.520562,0.77,-0.973,-0.127,267.71,54.14,99.8
1628866.573613,0.578,-0.859,0.29,443.68,64.46,176.82
1628866.620863,0.348,-0.597,0.661,469.77,21.36,191.53
1628866.673914,0.485,-0.169,0.705,379.22,-21.39,149.85
1628866.720487,0.364,-0.043,0.813,155.16,-12.24,87.34
1628866.773428,0.283,-0.113,0.935,12.85,20.14,37.87
1628866.820610,0.285,-0.266,0.947,8.39,-4.21,51.21
1628866.870667,0.387,-0.322,0.797,-15.17,6.65,28.96
1628866.923880,0.176,-0.373,0.998,-29.05,8.36,30.58
1628866.970458,0.322,-0.533,0.935,-34.18,34.58,19.04
1628867.019440,0.234,-0.448,0.874,-38.18,48.52,-3.11
1628867.059896,0.156,-0.44,0.983,-81.67,65.92,-17.98
1628867.109778,0.153,-0.411,0.969,-60.0,38.0,-2.01
1628867.159883,0.144,-0.488,0.837,-8.42,5.89,18.95
1628867.209231,0.057,-0.554,0.917,-1.59,-1.89,7.35
1628867.254257,0.124,-0.571,0.862,-42.27,1.13,-15.35
1628867.303628,0.181,-0.548,0.811,-51.79,7.39,-28.99
1628867.349175,0.193,-0.539,0.723,-64.82,20.45,-29.27
1628867.399726,0.124,-0.548,0.816,-30.27,14.53,-10.53
1628867.449153,0.107,-0.567,0.737,-9.37,-1.1,11.14
1628867.499208,0.076,-0.49,0.566,-76.2,0.82,6.32
1628867.549390,0.069,-0.572,0.443,-91.8,34.55,-8.06
1628867.589444,-0.054,-0.718,0.39,-110.93,19.5,33.75
1628867.629584,-0.038,-0.931,0.318,-64.52,24.48,40.8
1628867.669925,-0.032,-0.925,0.313,9.77,69.15,51.39
1628867.720588,-0.146,-0.953,0.381,38.94,169.62,47.58
1628867.760672,-0.294,-0.835,0.427,65.58,224.07,5.98
1628867.813686,-0.577,-0.716,0.658,99.0,249.09,12.79
1628867.860356,-0.615,-0.653,0.827,120.18,149.94,29.45
1628867.903251,-0.598,-0.572,0.853,149.48,147.34,19.81
1628867.949909,-0.58,-0.388,0.877,108.92,123.57,-26.86
1628867.990277,-0.545,-0.312,0.823,55.76,103.27,-67.51
1628868.033447,-0.406,-0.226,0.603,-45.14,101.41,-90.15
1628868.080101,-0.608,-0.36,0.552,-145.82,166.11,-78.28
1628868.120688,-0.503,-0.299,0.22,-217.96,108.43,-81.21
1628868.163860,-0.91,-0.447,0.241,-199.53,146.7,35.68
1628868.210382,-0.89,-0.424,-0.063,-89.75,62.56,114.96
1628868.254312,-1.073,-0.424,-0.188,-89.63,52.77,160.1
1628868.299764,-1.256,-0.626,-0.068,68.03,102.3,185.77
1628868.340323,-1.31,-0.563,0.004,130.86,81.64,159.67
1628868.383611,-1.308,-0.472,0.095,181.68,71.78,113.41
1628868.423936,-1.139,-0.344,0.079,118.11,7.45,42.97
1628868.470906,-1.046,-0.364,0.064,33.2,-28.66,12.33
1628868.520438,-1.03,-0.488,0.078,3.88,-5.95,13.25
1628868.570469,-1.038,-0.513,0.051,-7.26,-17.94,-15.66
1628868.619500,-1.01,-0.442,0.038,10.47,-20.54,-18.98
1628868.670441,-0.981,-0.401,0.02,0.98,-33.81,-25.85
1628868.720335,-0.973,-0.371,0.01,-0.37,-42.51,-26.67
1628868.770592,-0.946,-0.333,0.015,-0.15,-40.62,-27.13
1628868.820453,-0.937,-0.348,0.047,24.17,-38.54,-17.21
1628868.860588,-0.918,-0.34,0.082,29.94,-37.17,-12.39
1628868.913190,-0.949,-0.362,0.174,31.53,-27.16,-0.89
1628868.963436,-0.949,-0.39,0.247,22.03,-35.49,-3.48
1628869.013437,-1.069,-0.458,0.464,2.14,-49.23,-9.37
1628869.059059,-1.039,-0.489,0.472,-43.09,-107.03,-40.25
1628869.099898,-0.933,-0.546,0.478,-45.9,-114.35,-46.54
1628869.139928,-0.878,-0.511,0.48,-24.78,-111.12,-54.05
1628869.180318,-0.843,-0.479,0.493,-17.27,-110.63,-52.31
1628869.220579,-0.787,-0.457,0.484,-40.71,-107.43,-62.78
1628869.263691,-0.804,-0.521,0.577,-12.7,-104.65,-51.48
1628869.304462,-0.763,-0.536,0.598,-12.36,-125.16,-41.66
1628869.350047,-0.83,-0.742,0.858,-27.13,-125.64,-44.5
1628869.404152,-0.75,-0.821,0.917,-58.66,-206.46,-67.35
1628869.449990,-0.47,-0.92,0.823,-114.96,-224.46,-94.0
1628869.490638,-0.323,-0.939,0.802,-81.85,-240.03,-129.92
1628869.534003,-0.099,-0.792,0.515,-92.72,-260.57,-138.13
1628869.583562,0.099,-0.73,0.301,-161.9,-168.74,-184.3
1628869.630695,0.078,-0.588,0.177,-120.52,-149.45,-196.87
1628869.673961,0.201,-0.47,-0.028,-52.71,-142.19,-173.56
1628869.720498,0.37,-0.364,-0.235,-32.44,-94.7,-137.85
1628869.763393,0.455,-0.349,-0.245,-40.04,-56.18,-116.21
1628869.803562,0.539,-0.346,-0.23,-33.94,-48.86,-86.95
1628869.843644,0.675,-0.324,-0.29,-12.51,-46.82,-64.0
1628869.893935,0.79,-0.273,-0.335,10.41,-39.74,-25.76
1628869.933972,0.901,-0.337,-0.302,14.65,-23.59,-0.06
1628869.979410,0.977,-0.329,-0.208,21.73,-5.83,21.39
1628870.023708,0.971,-0.371,-0.178,4.85,13.0,32.41
1628870.073617,0.931,-0.471,-0.083,-14.19,-6.23,26.28
1628870.123886,0.889,-0.538,-0.155,-1.71,-12.39,-3.2
1628870.173849,0.815,-0.494,-0.179,-10.13,-13.92,-21.06
1628870.219706,0.794,-0.465,-0.174,-22.64,-6.23,-19.84
1628870.264056,0.793,-0.425,-0.187,-17.09,-3.88,-15.02
1628870.310825,0.826,-0.438,-0.21,-4.39,-0.58,-6.68
1628870.359928,0.859,-0.462,-0.23,6.26,4.12,-3.3
1628870.409173,0.869,-0.477,-0.222,2.04,9.22,-3.57
1628870.450400,0.88,-0.485,-0.202,2.56,8.64,-2.84
1628870.499719,0.879,-0.458,-0.176,3.11,1.56,-4.94
1628870.543867,0.872,-0.424,-0.186,14.59,-2.78,-3.42
1628870.590564,0.863,-0.404,-0.204,5.52,2.23,-2.26
1628870.639861,0.846,-0.415,-0.161,-5.01,7.11,-0.21
1628870.689126,0.839,-0.462,-0.145,-2.81,8.03,2.84
1628870.730203,0.839,-0.49,-0.16,3.05,4.67,1.98
1628870.779341,0.854,-0.484,-0.183,4.97,3.6,-4.12
1628870.823695,0.866,-0.46,-0.19,3.17,5.95,-4.97
1628870.869951,0.867,-0.442,-0.164,4.76,7.45,-3.66
1628870.919272,0.867,-0.42,-0.142,8.88,2.32,-0.24
1628870.960494,0.869,-0.415,-0.14,3.72,3.94,-0.21
1628871.009478,0.863,-0.435,-0.124,-2.04,5.04,-1.65
1628871.054266,0.868,-0.426,-0.138,-1.77,-2.35,-0.49
1628871.100162,0.878,-0.435,-0.153,-4.43,-1.56,-1.1
1628871.149192,0.882,-0.455,-0.149,0.52,3.97,-1.71
1628871.190600,0.872,-0.453,-0.143,1.4,2.08,-2.84
1628871.239813,0.881,-0.429,-0.143,1.68,-0.82,-4.49
1628871.284037,0.877,-0.419,-0.145,2.56,1.62,-3.78
1628871.330304,0.873,-0.428,-0.137,2.41,1.25,-2.08
1628871.379457,0.868,-0.448,-0.127,2.38,1.04,-1.86
1628871.420913,0.868,-0.442,-0.133,3.11,0.31,-2.81
1628871.470430,0.872,-0.431,-0.139,1.34,0.46,-2.26
1628871.519145,0.877,-0.436,-0.141,2.23,0.52,-1.74
1628871.560485,0.878,-0.426,-0.141,0.89,0.03,-2.08
1628871.609537,0.886,-0.416,-0.144,1.34,0.06,-0.76
1628871.654334,0.879,-0.423,-0.138,0.21,1.19,-0.15
1628871.700195,0.873,-0.425,-0.134,0.31,0.89,0.52
1628871.749420,0.873,-0.43,-0.134,2.29,1.74,0.7
1628871.790482,0.874,-0.425,-0.133,0.55,0.12,0.52
1628871.839607,0.877,-0.436,-0.136,-0.76,-0.4,0.21
1628871.883384,0.883,-0.442,-0.142,-0.52,-1.01,-0.85
1628871.930047,0.87,-0.439,-0.13,-0.21,0.76,-2.08
1628871.979254,0.862,-0.444,-0.119,2.78,-1.01,-2.04
1628872.020614,0.855,-0.455,-0.117,4.91,-0.98,-2.75
1628872.070315,0.835,-0.475,-0.116,8.82,0.06,-5.43
1628872.113986,0.837,-0.469,-0.131,8.55,2.17,-10.53
1628872.160810,0.901,-0.281,-0.235,3.75,4.03,-9.37
1628872.210479,1.079,-0.077,-0.209,10.28,12.7,26.15
1628872.250549,1.22,0.085,-0.144,9.8,12.39,80.72
1628872.303994,1.372,0.238,-0.055,-51.58,-27.44,157.32
1628872.350504,1.319,0.245,-0.114,-184.27,-130.65,239.36
1628872.393724,1.096,0.082,-0.186,-257.39,-165.11,247.11
1628872.443523,0.778,0.333,-0.544,-281.93,-222.3,333.63
1628872.490589,0.318,0.761,-0.647,-268.53,-114.69,382.73
1628872.533994,-1.652,1.496,-0.759,-359.66,116.21,440.08
1628872.583674,-2.855,-0.791,-4.0,-789.79,15.41,363.08
1628872.630063,-0.857,-1.015,-1.828,195.1,-39.28,35.16
1628872.670806,-0.198,1.037,-1.794,125.89,2.11,-139.32
1628872.713594,-0.337,0.456,-1.248,-12.57,57.1,-94.27
1628872.754616,-0.759,-0.397,-1.26,123.87,83.32,-167.46
1628872.803629,-0.979,-0.253,-1.441,214.91,169.56,-253.15
1628872.850830,-0.491,-0.152,-1.231,293.01,110.93,-228.61
1628872.899852,-0.156,-0.32,-0.745,296.43,116.21,-275.7
1628872.943357,0.147,-0.172,-0.448,372.69,100.07,-281.17
1628872.990265,0.608,0.014,-0.543,311.35,36.74,-231.3
1628873.033513,0.745,0.243,-0.691,175.97,48.65,-184.61
1628873.080274,0.999,0.188,-0.567,119.05,64.18,-119.45
1628873.123203,1.039,0.284,-0.459,102.66,49.68,-75.35
1628873.163428,1.166,0.21,-0.347,65.71,71.69,-50.17
1628873.204659,1.083,0.154,-0.223,22.13,37.78,-21.06
1628873.254051,1.014,-0.16,-0.07,-10.96,52.83,-7.78
1628873.300685,0.876,-0.246,-0.02,0.85,14.16,11.6
1628873.350105,0.927,-0.355,0.002,-7.54,-8.12,6.29
1628873.399370,0.95,-0.414,-0.06,-4.24,4.49,1.53
1628873.440722,0.936,-0.418,-0.025,14.68,-4.3,0.37
1628873.482483,0.923,-0.344,-0.03,13.89,-6.47,-3.45
1628873.529453,0.897,-0.351,-0.031,21.0,-11.66,-1.46
1628873.570248,0.913,-0.323,-0.091,20.14,-20.05,0.06
1628873.614656,0.914,-0.362,-0.08,8.73,-1.86,-0.43
1628873.660156,0.895,-0.38,-0.06,18.37,-5.4,-1.74
1628873.700340,0.901,-0.345,-0.079,12.36,-12.88,1.13
1628873.749535,0.899,-0.334,-0.068,6.07,-8.18,3.33
1628873.793615,0.9,-0.351,-0.066,-2.5,-14.37,3.88
1628873.840420,0.91,-0.354,-0.099,-1.65,-11.9,-0.64
1628873.889834,0.913,-0.384,-0.118,10.77,-5.92,8.21
1628873.939265,0.906,-0.384,-0.103,8.85,-1.65,8.33
1628873.983547,0.914,-0.402,-0.095,-0.37,-0.98,7.54
1628874.029883,0.904,-0.388,-0.09,5.19,-3.51,3.69
1628874.079424,0.921,-0.366,-0.119,8.03,-11.32,6.9
1628874.120607,0.912,-0.375,-0.148,-3.45,-5.22,6.38
1628874.170930,0.876,-0.425,-0.121,-15.38,-6.35,5.43
1628874.220391,0.888,-0.431,-0.102,-8.45,-5.34,1.07
1628874.264099,0.897,-0.377,-0.089,-6.81,-4.36,-4.21
1628874.310185,0.9,-0.354,-0.105,-2.2,-1.34,-4.36
1628874.359328,0.912,-0.341,-0.151,-9.4,-2.23,-1.83
1628874.404372,0.905,-0.354,-0.119,-11.29,-5.28,2.53
1628874.450564,0.887,-0.412,-0.152,0.89,-2.66,11.47
1628874.500008,0.875,-0.467,-0.146,-3.08,-1.34,5.16
1628874.548995,0.881,-0.433,-0.139,-0.43,0.58,-2.9
1628874.590220,0.889,-0.382,-0.144,4.06,0.31,-4.18
1628874.639493,0.894,-0.36,-0.133,1.04,2.44,-2.5
1628874.683993,0.892,-0.37,-0.127,0.09,3.39,-0.03
1628874.730201,0.897,-0.399,-0.133,4.43,-0.7,2.9
1628874.779397,0.904,-0.41,-0.153,1.04,-1.13,1.68
1628874.820384,0.902,-0.418,-0.144,1.77,0.43,0.37
1628874.870178,0.884,-0.413,-0.134,6.16,-1.86,-0.03
1628874.914135,0.893,-0.396,-0.139,3.39,-1.77,-2.26
1628874.960329,0.882,-0.369,-0.144,-2.38,-3.05,-3.05
1628875.009395,0.881,-0.372,-0.158,-0.64,0.46,-0.55
1628875.050817,0.873,-0.382,-0.138,-0.58,1.4,0.24
1628875.099969,0.881,-0.403,-0.138,-0.85,3.81,0.92
1628875.149523,0.889,-0.412,-0.129,1.65,2.84,0.4
1628875.190256,0.904,-0.395,-0.126,-2.56,1.16,-1.77
1628875.239640,0.922,-0.388,-0.142,1.43,-3.57,-2.14
1628875.283856,0.908,-0.381,-0.146,0.64,-3.02,-1.4
1628875.330338,0.886,-0.387,-0.149,-1.77,-1.53,-3.2
1628875.379539,0.877,-0.379,-0.143,0.37,0.89,-2.75
1628875.420795,0.884,-0.363,-0.147,2.26,2.62,-0.79
1628875.470540,0.891,-0.37,-0.131,2.26,4.73,0.95
1628875.514066,0.896,-0.382,-0.133,1.95,2.69,2.11
1628875.560232,0.909,-0.401,-0.128,2.2,1.04,1.71
1628875.609429,0.9,-0.402,-0.131,-0.46,0.76,-0.06
1628875.650747,0.899,-0.396,-0.138,0.64,0.15,-1.13
1628875.699917,0.892,-0.396,-0.125,-0.55,0.58,-1.86
1628875.749211,0.895,-0.393,-0.129,-1.31,-0.06,-2.32
1628875.790313,0.896,-0.377,-0.14,-1.62,0.7,-0.67
1628875.839625,0.9,-0.385,-0.141,-2.87,1.86,0.34
1628875.883819,0.893,-0.389,-0.136,-2.56,3.97,-0.43
1628875.930228,0.895,-0.393,-0.116,-1.28,0.82,-0.98
1628875.979471,0.901,-0.378,-0.129,-2.01,0.46,-2.01
1628876.020563,0.906,-0.373,-0.13,-1.43,1.4,-2.17
1628876.070693,0.901,-0.36,-0.129,0.09,1.04,-0.73
1628876.113957,0.9,-0.37,-0.126,-0.89,2.9,-0.85
1628876.159862,0.901,-0.375,-0.122,0.09,1.31,-0.64
1628876.209087,0.903,-0.365,-0.125,0.21,2.23,0.55
1628876.250801,0.901,-0.384,-0.122,-0.27,4.55,0.24
1628876.299608,0.903,-0.382,-0.112,0.7,2.99,0.4
1628876.343697,0.907,-0.375,-0.112,0.92,2.41,-0.43
1628876.390249,0.906,-0.372,-0.115,-0.73,0.67,-0.15
1628876.439336,0.908,-0.375,-0.118,0.73,-0.31,0.27
1628876.481193,0.907,-0.375,-0.115,0.18,0.7,-0.4
1628876.530026,0.903,-0.372,-0.116,1.13,0.67,-0.79
1628876.579207,0.904,-0.365,-0.118,0.89,0.79,-0.12
1628876.620764,0.901,-0.369,-0.111,0.37,0.73,0.52
1628876.670056,0.905,-0.383,-0.112,0.76,-0.79,1.01
1628876.713821,0.902,-0.386,-0.112,0.95,-0.98,0.18
1628876.759908,0.903,-0.383,-0.116,0.31,-1.16,-1.43
1628876.809358,0.905,-0.378,-0.127,-1.04,-1.4,-1.07
1628876.850531,0.896,-0.378,-0.125,0.24,-1.46,-0.7
1628876.899858,0.899,-0.37,-0.123,-0.4,-0.7,-0.89
1628876.944004,0.9,-0.37,-0.13,-0.15,0.24,-0.12
1628876.990250,0.901,-0.38,-0.115,-0.15,0.67,-0.49
1628877.039235,0.9,-0.368,-0.123,-0.24,0.4,-0.58
1628877.081300,0.902,-0.364,-0.128,-0.61,0.43,0.67
1628877.130002,0.905,-0.381,-0.117,-0.55,1.28,1.1
1628877.179119,0.898,-0.382,-0.113,0.85,1.86,-0.55
1628877.220394,0.903,-0.371,-0.119,1.53,1.25,-0.64
1628877.269229,0.902,-0.372,-0.124,-0.06,0.67,-0.46
1628877.310456,0.903,-0.367,-0.119,-0.21,0.92,-0.27
1628877.359732,0.904,-0.358,-0.125,0.34,1.68,0.95
1628877.409123,0.903,-0.369,-0.105,-0.61,2.2,2.04
1628877.450494,0.906,-0.381,-0.107,-0.49,1.68,1.25
1628877.499832,0.905,-0.382,-0.109,0.03,0.18,-0.24
1628877.543980,0.893,-0.375,-0.122,-0.58,1.1,-1.04
1628877.590296,0.92,-0.3,-0.208,-14.04,9.92,-4.7
1628877.630448,1.083,0.025,-0.569,-151.95,111.09,-39.74
1628877.673767,1.039,0.239,-0.271,-348.06,204.63,-109.2
1628877.720707,0.992,0.366,-0.361,-394.45,312.54,-119.08
1628877.771204,0.785,0.141,0.719,-367.69,217.9,-186.22
1628877.813736,0.605,0.449,0.797,-216.07,58.72,-116.15
1628877.860516,0.542,0.208,0.477,-184.09,-152.71,61.89
1628877.903837,0.817,-0.104,0.019,-168.77,-129.34,81.64
1628877.950331,0.708,-0.284,-0.233,-208.53,-99.0,-78.92
1628877.993576,0.483,-0.212,-0.545,-174.5,-163.15,-78.46
1628878.040335,0.869,0.018,-1.242,-208.56,-203.96,-135.14
1628878.083922,0.815,0.239,-1.462,-207.65,-179.17,-105.23
1628878.130609,1.397,-0.492,-0.927,-96.87,-106.02,106.27
1628878.170637,1.433,-0.534,-0.831,8.06,-18.95,33.2
1628878.220735,0.782,0.294,-0.56,25.88,27.19,-39.0
1628878.273806,0.9,0.214,-0.509,11.6,-5.58,6.23
1628878.323801,0.916,0.159,-0.478,15.26,5.83,17.49
1628878.375925,0.796,0.105,-0.433,12.09,12.6,17.46
1628878.418869,0.785,0.085,-0.432,3.6,5.92,-12.76
1628878.460230,0.8,0.168,-0.456,5.86,1.31,-11.44
1628878.509829,0.801,0.134,-0.423,6.04,-0.31,17.24
1628878.549989,0.871,0.105,-0.46,1.98,-4.39,13.92
1628878.590355,0.93,0.087,-0.481,-1.25,-3.23,1.71
1628878.639757,0.951,0.093,-0.466,-2.5,1.19,3.36
1628878.683987,0.94,0.049,-0.459,-1.1,6.44,11.35
1628878.730800,0.895,0.026,-0.465,4.49,10.56,19.71
1628878.783701,0.883,0.036,-0.442,4.64,11.84,16.36
1628878.833719,0.863,0.047,-0.426,0.21,10.86,12.09
1628878.880753,0.871,0.008,-0.398,0.0,7.51,18.86
1628878.930187,0.839,-0.036,-0.388,-1.16,4.39,18.37
1628878.979703,0.866,-0.056,-0.408,-0.37,-1.04,5.52
1628879.028955,0.834,-0.024,-0.367,6.53,0.76,2.69
1628879.070230,0.819,-0.02,-0.339,8.36,-4.91,8.09
1628879.120198,0.859,-0.035,-0.396,1.43,-7.6,-3.14
1628879.163778,0.879,-0.038,-0.406,2.23,-12.39,-8.51
1628879.210294,0.919,-0.004,-0.429,-4.79,-9.13,-4.82
1628879.259995,0.929,-0.052,-0.429,-8.0,-10.77,5.83
1628879.309455,0.927,-0.075,-0.468,-7.32,-7.54,-4.15
1628879.350822,0.902,-0.065,-0.45,-2.04,-5.46,-7.51
1628879.400018,0.85,-0.015,-0.431,0.46,-1.56,-8.0
1628879.449359,0.804,0.029,-0.41,-0.64,-5.31,-5.65
1628879.490414,0.803,0.03,-0.403,5.74,-7.81,6.13
1628879.540028,0.821,0.024,-0.488,2.47,-17.58,-3.75
1628879.589710,0.863,-0.002,-0.509,-7.45,-13.7,-1.13
1628879.634145,0.892,-0.037,-0.499,-5.83,-8.15,2.44
1628879.680821,0.878,-0.025,-0.523,-1.53,-1.34,0.18
1628879.729396,0.861,-0.01,-0.506,-2.2,-2.26,0.92
1628879.770657,0.884,-0.016,-0.532,-1.95,-0.52,0.0
1628879.819645,0.862,-0.037,-0.498,1.62,-0.27,4.79
1628879.869106,0.867,-0.04,-0.514,1.77,1.56,-1.59
1628879.910487,0.838,-0.017,-0.487,0.06,2.32,-1.16
1628879.959666,0.829,-0.008,-0.502,0.7,-0.49,4.64
1628880.005326,0.829,-0.033,-0.483,0.21,0.95,2.56
1628880.049926,0.845,-0.017,-0.485,1.25,-3.94,-1.68
1628880.099340,0.845,0.008,-0.507,-0.76,0.15,-2.08
1628880.140808,0.856,-0.003,-0.5,-0.76,-2.29,0.31
1628880.198616,0.861,0.011,-0.506,-2.14,1.19,-3.54
1628880.241505,0.854,-0.0,-0.487,-2.29,2.72,-1.86
1628880.290585,0.854,-0.016,-0.477,-2.26,2.62,-2.01
1628880.339434,0.854,-0.022,-0.43,-2.75,0.55,-3.78
1628880.383586,0.852,-0.039,-0.46,-3.14,-0.7,-3.11
1628880.430102,0.854,-0.063,-0.438,-1.13,2.59,-3.94
1628880.479464,0.789,-0.026,-0.477,5.43,0.67,-11.81
1628880.529479,0.747,0.037,-0.66,32.59,13.92,4.27
1628880.569631,0.885,-0.092,-0.83,71.75,32.56,38.94
1628880.609866,1.014,-0.198,-1.286,109.81,86.31,-0.76
1628880.650281,0.655,-0.039,-1.226,95.58,134.16,-68.03
1628880.703450,0.564,-0.059,-0.868,66.81,107.82,-18.07
1628880.744107,0.659,-0.024,-0.717,113.96,79.2,-36.26
1628880.790193,0.767,0.083,-0.201,81.91,115.57,-36.96
1628880.830623,0.879,0.097,0.053,54.14,73.31,-36.13
1628880.873856,0.879,0.08,0.215,19.68,58.93,-2.84
1628880.920245,0.992,-0.015,0.484,-12.57,39.67,61.56
1628880.960591,0.904,0.027,0.638,-32.07,44.34,94.97
1628881.003937,0.752,0.07,0.816,-83.01,32.56,114.81
1628881.049924,0.81,-0.117,0.581,-131.2,-25.3,99.03
1628881.100806,1.113,-0.424,0.39,-108.1,-29.57,64.36
1628881.153460,1.138,-0.507,0.365,-31.07,13.25,45.23
1628881.203648,1.02,-0.454,0.226,12.54,20.87,-1.5
1628881.249533,0.894,-0.336,0.122,21.45,15.87,-24.45
1628881.289554,0.9,-0.307,0.04,22.74,7.45,-11.54
1628881.333979,0.895,-0.344,-0.027,10.9,7.66,-5.43
1628881.381164,0.877,-0.35,0.001,12.51,4.46,6.9
1628881.430598,0.913,-0.369,0.013,7.08,-2.04,9.8
1628881.479637,0.92,-0.364,0.055,1.13,-3.39,4.85
1628881.520659,0.906,-0.355,0.069,-0.79,0.82,7.93
1628881.571084,0.93,-0.395,0.065,3.39,1.43,11.41
1628881.619823,0.906,-0.375,0.089,4.97,0.92,12.33
1628881.670025,0.902,-0.392,0.094,2.35,-1.13,7.11
1628881.710580,0.929,-0.423,0.065,-0.21,-1.77,-0.89
1628881.760027,0.9,-0.39,0.065,0.95,-0.18,-1.95
1628881.809190,0.9,-0.393,0.059,3.57,-0.21,4.12
1628881.850503,0.901,-0.408,0.061,1.1,-0.4,0.21
1628881.899668,0.874,-0.381,0.079,-0.58,-2.9,1.56
1628881.943856,0.886,-0.393,0.061,-1.8,-3.78,3.88
1628881.990137,0.908,-0.401,0.057,-1.92,-4.12,1.56
1628882.039253,0.931,-0.393,0.056,-3.51,-1.34,2.99
1628882.081001,0.93,-0.402,0.052,-2.38,0.55,5.13
1628882.129823,0.9,-0.392,0.073,-3.23,2.9,-0.52
1628882.174061,0.875,-0.395,0.094,-3.11,-0.85,0.46
1628882.223308,0.894,-0.434,0.068,-0.37,-5.74,-0.73
1628882.269296,0.911,-0.44,0.042,-0.18,-1.71,-6.16
1628882.310937,0.908,-0.418,0.038,4.7,2.41,-3.91
1628882.359953,0.88,-0.379,0.06,5.4,2.75,2.29
1628882.404269,0.879,-0.38,0.056,2.81,-0.52,5.34
1628882.450460,0.908,-0.412,0.048,1.83,-4.64,4.43
1628882.499420,0.914,-0.398,0.04,0.58,-3.51,0.43
1628882.540549,0.914,-0.396,0.039,-1.31,-0.58,0.7
1628882.589881,0.903,-0.406,0.049,-2.41,0.58,0.09
1628882.639373,0.892,-0.418,0.044,-2.9,1.22,1.5
1628882.681086,0.881,-0.413,0.06,-2.14,0.06,2.44
1628882.729896,0.886,-0.416,0.05,-1.1,-0.89,0.52
1628882.774119,0.881,-0.407,0.073,-1.46,1.71,-0.03
1628882.820578,0.894,-0.443,0.039,-1.62,-1.83,1.28
1628882.870262,0.908,-0.426,0.052,1.25,1.71,-0.18
1628882.910581,0.915,-0.405,0.054,0.21,-0.37,0.61
1628882.959937,0.919,-0.397,0.048,0.58,4.52,-0.85
1628883.004447,0.904,-0.397,0.052,-0.95,2.35,-0.67
1628883.050006,0.892,-0.417,0.055,-1.53,0.95,-1.53
1628883.099528,0.878,-0.409,0.071,-0.76,-1.19,-2.23
1628883.140740,0.878,-0.403,0.06,-0.95,-4.03,0.0
1628883.190062,0.903,-0.415,0.039,-1.5,-3.45,0.76
1628883.239377,0.902,-0.396,0.042,-0.18,-0.67,0.85
1628883.284315,0.903,-0.401,0.04,-1.71,1.22,3.81
1628883.329705,0.909,-0.437,0.046,-1.01,0.49,3.11
1628883.374054,0.903,-0.438,0.044,-0.4,-1.92,-0.15
1628883.420666,0.896,-0.418,0.05,0.85,-1.74,-2.62
1628883.469401,0.889,-0.407,0.05,1.56,-1.25,-0.46
1628883.511414,0.879,-0.402,0.054,1.22,0.06,0.79
1628883.562081,0.891,-0.414,0.049,2.08,-1.98,2.78
1628883.603632,0.9,-0.413,0.042,1.86,-1.1,1.53
1628883.650318,0.901,-0.397,0.032,2.11,-0.85,0.85
1628883.699599,0.89,-0.382,0.038,-2.23,-2.41,1.43
1628883.740711,0.895,-0.429,0.041,-5.46,-3.39,2.5
1628883.790116,0.9,-0.448,0.036,-1.46,-1.77,-2.01
1628883.834088,0.888,-0.441,0.041,2.41,-0.79,-0.92
1628883.880887,0.887,-0.416,0.04,2.5,0.49,-0.46
1628883.929783,0.895,-0.405,0.031,1.37,0.79,-0.24
1628883.970968,0.909,-0.409,0.025,0.18,1.53,0.4
1628884.021173,0.909,-0.414,0.034,-1.53,2.75,-0.37
1628884.069448,0.9,-0.409,0.051,-0.03,3.48,0.85
1628884.110504,0.888,-0.403,0.065,-0.46,1.07,-0.15
1628884.159753,0.883,-0.412,0.06,0.73,-3.14,-0.03
1628884.204292,0.898,-0.428,0.042,3.42,-4.7,-0.43
1628884.250096,0.911,-0.416,0.038,3.33,-4.67,-2.11
1628884.299305,0.909,-0.41,0.019,4.24,-0.46,-1.1
1628884.340350,0.891,-0.403,0.031,4.09,2.32,0.03
1628884.389915,0.876,-0.388,0.035,0.37,-0.52,0.31
1628884.434244,0.895,-0.417,0.021,-1.19,-0.85,1.77
1628884.480950,0.905,-0.41,0.036,-1.07,1.43,1.34
1628884.529621,0.908,-0.4,0.04,-4.61,0.37,2.99
1628884.571500,0.904,-0.416,0.036,-5.28,2.78,2.59
1628884.620621,0.874,-0.413,0.058,-5.55,-0.09,0.67
1628884.669313,0.879,-0.434,0.054,-5.01,-3.33,0.7
1628884.710509,0.889,-0.441,0.036,-1.5,-5.07,0.31
1628884.760200,0.903,-0.431,0.02,-1.25,-3.3,-0.24
1628884.800552,0.907,-0.419,0.019,-0.55,-0.4,0.92
1628884.850015,0.898,-0.41,0.029,0.09,2.17,1.53
1628884.899403,0.882,-0.409,0.041,-1.71,1.34,0.21
1628884.940563,0.888,-0.441,0.029,-1.13,-1.04,1.37
1628884.989798,0.889,-0.427,0.037,1.28,-1.53,-0.15
1628885.034167,0.903,-0.42,0.026,1.53,-2.44,-0.27
1628885.080437,0.906,-0.411,0.029,0.73,-0.98,-0.4
1628885.132809,0.909,-0.423,0.022,1.46,1.98,-0.46
1628885.183648,0.889,-0.407,0.029,1.86,1.8,-1.34
1628885.230379,0.889,-0.414,0.027,0.27,1.34,-1.34
1628885.279163,0.884,-0.415,0.033,1.25,1.4,-0.24
1628885.320378,0.883,-0.401,0.032,0.43,-0.37,0.7
1628885.369617,0.9,-0.42,0.024,-1.71,-1.71,2.32
1628885.413832,0.908,-0.431,0.025,0.18,0.0,1.16
1628885.460882,0.9,-0.425,0.034,0.06,1.4,0.37
1628885.509591,0.906,-0.433,0.031,1.31,2.44,-0.55
1628885.550861,0.918,-0.452,0.017,2.69,5.07,-1.31
1628885.600038,0.969,-0.474,-0.003,4.18,4.7,-7.02
1628885.650028,0.924,-0.403,0.028,10.01,15.08,-12.7
1628885.699637,0.817,-0.283,0.113,7.05,11.26,-3.6
1628885.755301,0.827,-0.316,0.108,-4.79,2.04,-1.37
1628885.804345,0.874,-0.438,0.072,-10.83,-4.55,-0.64
1628885.850198,0.908,-0.467,0.031,-2.53,-2.29,3.08
1628885.899458,0.921,-0.41,0.024,0.89,-3.39,0.89
1628885.940606,0.925,-0.381,0.021,0.73,-0.34,1.56
1628885.989885,0.903,-0.368,0.054,-2.53,1.43,2.41
1628886.034225,0.88,-0.397,0.069,-3.42,-1.46,3.11
1628886.081210,0.892,-0.42,0.05,-1.68,-2.99,0.52
1628886.129673,0.901,-0.403,0.041,-1.16,-1.8,0.52
1628886.170871,0.905,-0.411,0.031,-0.85,-0.95,3.33
1628886.220457,0.897,-0.396,0.038,-0.58,-0.09,2.17
1628886.264096,0.894,-0.405,0.048,-3.39,-0.46,1.98
1628886.310421,0.903,-0.436,0.033,-2.56,-1.13,1.5
1628886.359661,0.909,-0.413,0.036,-1.19,0.24,0.31
1628886.400938,0.91,-0.408,0.035,-2.01,1.62,-0.09
1628886.450152,0.91,-0.421,0.036,-1.83,4.03,-0.82
1628886.499386,0.887,-0.415,0.052,-1.8,2.93,-1.71
1628886.540531,0.886,-0.421,0.046,-1.89,1.74,-1.34
1628886.589846,0.876,-0.388,0.06,-1.04,0.58,-1.4
1628886.634163,0.884,-0.393,0.049,-2.96,-3.63,1.43
1628886.681029,0.913,-0.421,0.041,-2.53,0.0,-0.21
1628886.729603,0.916,-0.423,0.038,-0.12,0.06,1.62
1628886.771260,0.913,-0.404,0.042,1.92,1.77,-0.82
1628886.814957,0.911,-0.396,0.046,1.13,1.25,-1.92
1628886.863719,0.906,-0.414,0.038,1.28,2.78,-1.74
1628886.910347,0.887,-0.415,0.044,4.55,1.4,-2.44
1628886.959572,0.891,-0.407,0.036,2.08,1.13,-0.98
1628887.000934,0.892,-0.388,0.057,0.92,0.03,0.55
1628887.050166,0.898,-0.404,0.048,-1.46,-1.01,-0.4
1628887.099413,0.902,-0.411,0.051,-1.28,1.53,0.12
1628887.140501,0.906,-0.405,0.048,-2.41,1.01,-1.22
1628887.189786,0.913,-0.402,0.03,-1.98,2.01,-0.43
1628887.233831,0.9,-0.397,0.043,-1.59,2.17,0.18
1628887.282102,0.89,-0.393,0.045,-3.51,-0.18,-1.4
1628887.329306,0.9,-0.41,0.041,-5.19,-0.09,-0.06
1628887.371098,0.905,-0.41,0.042,-3.11,1.77,0.46
1628887.420912,0.903,-0.395,0.042,-3.02,2.9,0.18
1628887.464002,0.891,-0.382,0.055,-5.46,2.93,2.14
1628887.510350,0.907,-0.423,0.044,-5.34,2.9,4.55
1628887.559594,0.96,-0.48,0.044,-1.71,6.59,0.61
1628887.603967,0.938,-0.493,0.13,10.99,18.13,4.43
1628887.654095,0.871,-0.561,0.354,49.44,33.91,18.04
1628887.694296,0.847,-0.527,0.61,88.66,52.4,21.73
1628887.739880,0.868,-0.303,0.812,130.92,55.02,-2.59
1628887.780832,0.738,0.131,0.944,130.38,60.55,-60.73
1628887.833659,0.642,0.28,1.148,53.1,9.86,-69.12
1628887.884308,0.803,-0.01,0.756,9.95,-68.0,25.67
1628887.929583,1.046,-0.377,0.214,-62.11,-85.85,-18.49
1628887.981279,0.597,0.013,0.147,-132.3,-109.26,-126.68
1628888.024066,0.543,0.01,-0.559,-104.71,-170.63,17.03
1628888.071086,0.101,-0.122,-1.297,-161.72,-221.9,66.81
1628888.113897,0.696,-0.317,-1.905,-178.53,-231.15,78.19
1628888.160535,1.377,-0.989,-0.975,-130.13,-95.98,-13.67
1628888.211399,0.973,-0.213,-0.725,33.6,47.06,-14.95
1628888.263888,0.483,0.164,-0.448,6.5,14.92,1.25
1628888.314100,0.927,-0.162,-0.518,-16.94,-30.52,14.1
1628888.363985,0.938,-0.287,-0.489,-5.28,-5.16,-5.31
1628888.410819,0.838,-0.115,-0.494,-4.49,5.34,-23.62
1628888.459938,0.834,-0.146,-0.475,-4.24,2.69,-0.15
1628888.509398,0.838,-0.212,-0.486,-2.17,7.02,2.41
1628888.550717,0.818,-0.162,-0.461,-0.61,3.3,-11.6
1628888.600150,0.824,-0.135,-0.471,-5.8,3.54,-4.61
1628888.649428,0.835,-0.141,-0.455,-1.89,0.7,0.95
1628888.690650,0.839,-0.145,-0.443,-4.12,0.49,-0.06
1628888.739821,0.832,-0.138,-0.459,-7.69,1.13,-0.92
1628888.783787,0.832,-0.183,-0.478,-7.2,0.49,2.99
1628888.830387,0.847,-0.169,-0.487,-3.72,-1.1,-2.2
1628888.870389,0.851,-0.16,-0.475,-0.92,-3.45,0.49
1628888.910445,0.888,-0.146,-0.49,0.67,1.89,4.94
1628888.959287,0.842,-0.149,-0.469,-0.31,4.7,-4.18
1628889.000498,0.827,-0.113,-0.47,0.43,2.99,-0.55
1628889.049832,0.823,-0.152,-0.458,-0.73,-0.61,5.07
1628889.093977,0.84,-0.16,-0.461,-1.5,-0.98,0.73
1628889.140437,0.831,-0.148,-0.475,-1.28,0.58,-0.15
1628889.189655,0.83,-0.15,-0.474,-1.4,-1.92,1.62
1628889.231068,0.85,-0.163,-0.46,-1.62,-2.9,-0.03
1628889.281252,0.867,-0.153,-0.487,-0.27,-1.8,1.65
1628889.329524,0.865,-0.149,-0.479,1.89,0.34,1.56
1628889.370797,0.843,-0.152,-0.477,-0.37,-0.34,0.76
1628889.420288,0.838,-0.163,-0.488,-1.22,1.59,-1.95
1628889.464216,0.838,-0.156,-0.474,-0.43,1.07,-3.36
1628889.510041,0.852,-0.138,-0.485,1.1,0.12,-2.38
1628889.559362,0.859,-0.136,-0.48,-1.77,2.62,-3.54
1628889.600891,0.844,-0.137,-0.476,-0.61,1.86,-0.85
1628889.649771,0.835,-0.144,-0.471,-2.5,1.5,-6.2
1628889.694153,0.839,-0.138,-0.473,-1.65,1.25,-2.81
1628889.740416,0.834,-0.137,-0.474,-0.09,-0.61,-1.95
1628889.789763,0.84,-0.12,-0.472,-1.37,1.22,-1.8
1628889.830487,0.844,-0.123,-0.468,-1.56,-1.46,-1.1
1628889.880560,0.855,-0.119,-0.478,-0.95,-0.27,0.67
1628889.929422,0.858,-0.129,-0.478,0.27,-0.27,6.38
1628889.971016,0.842,-0.145,-0.473,-0.4,0.61,3.33
1628890.019779,0.832,-0.125,-0.471,-0.06,-0.79,3.23
1628890.063922,0.856,-0.15,-0.487,-1.1,-3.3,2.04
1628890.113291,0.874,-0.147,-0.495,-0.24,-1.01,0.24
1628890.159504,0.842,-0.144,-0.475,1.07,0.67,3.11
1628890.200769,0.829,-0.155,-0.457,-0.55,1.65,0.92
1628890.249939,0.84,-0.157,-0.468,-1.74,-0.21,-2.56
1628890.294153,0.848,-0.162,-0.476,-0.4,-0.64,-2.66
1628890.340443,0.842,-0.158,-0.478,0.06,-0.09,-5.13
1628890.389676,0.851,-0.134,-0.475,1.74,0.12,-2.35
1628890.430855,0.852,-0.138,-0.461,0.73,1.31,-3.23
1628890.480417,0.854,-0.127,-0.481,0.0,0.49,-6.16
1628890.527344,0.851,-0.132,-0.482,1.16,0.27,-1.92
1628890.570097,0.829,-0.12,-0.48,1.83,2.04,-4.61
1628890.619518,0.826,-0.1,-0.483,0.76,-0.58,-3.88
1628890.660691,0.833,-0.109,-0.484,-0.15,0.21,-2.41
1628890.710153,0.837,-0.102,-0.482,0.09,-1.31,-2.93
1628890.759376,0.848,-0.11,-0.478,-1.92,-2.08,-2.14
1628890.800525,0.85,-0.111,-0.476,-1.65,-0.61,-2.41
1628890.849911,0.843,-0.12,-0.483,-2.62,-0.85,-1.98
1628890.894371,0.848,-0.117,-0.494,-1.37,0.06,-2.14
1628890.940264,0.836,-0.117,-0.485,-1.89,-0.95,-2.11
1628890.983601,0.85,-0.117,-0.486,-1.98,-0.31,-3.51
1628891.030604,0.857,-0.11,-0.489,-1.04,0.55,-1.65
1628891.080834,0.864,-0.109,-0.499,-0.67,0.55,-0.79
1628891.124036,0.858,-0.115,-0.488,-0.37,1.92,-0.89
1628891.170306,0.848,-0.097,-0.477,-0.21,1.62,-1.1
1628891.219558,0.849,-0.099,-0.479,-1.22,2.87,0.73
1628891.261023,0.847,-0.099,-0.477,-1.04,1.25,-0.37
1628891.310112,0.844,-0.085,-0.475,-1.19,3.02,0.64
1628891.359340,0.844,-0.095,-0.465,-2.29,-0.06,1.16
1628891.400551,0.86,-0.087,-0.476,-3.81,-0.15,-1.56
1628891.449870,0.874,-0.107,-0.483,-5.95,1.37,-0.67
1628891.490969,0.872,-0.126,-0.481,-3.42,3.39,0.79
1628891.534881,0.841,-0.123,-0.469,-2.11,4.33,-1.4
1628891.579678,0.827,-0.098,-0.474,-0.37,2.87,-1.59
1628891.620808,0.833,-0.093,-0.464,-0.64,1.56,-0.7
1628891.669643,0.825,-0.086,-0.459,-1.22,0.85,-1.31
1628891.712044,0.837,-0.082,-0.46,-1.8,-0.85,-2.44
1628891.760435,0.849,-0.073,-0.475,-2.44,-1.83,-2.62
1628891.804148,0.862,-0.088,-0.472,-1.46,-0.55,0.4
1628891.850690,0.921,-0.103,-0.516,10.01,3.27,5.28
1628891.900382,0.915,-0.127,-0.507,23.74,14.19,12.91
1628891.953559,0.879,-0.058,-0.5,25.42,24.96,12.18
1628892.003668,0.857,-0.021,-0.398,-11.44,7.84,-35.68
1628892.053847,0.895,0.0,-0.42,-26.28,-2.17,-13.4
1628892.104018,0.894,-0.124,-0.462,-19.78,-0.52,20.54
1628892.154182,0.836,-0.169,-0.428,-15.11,6.1,5.19
1628892.204151,0.808,-0.115,-0.42,-13.25,3.91,-11.69
1628892.254216,0.834,-0.09,-0.399,-11.51,-2.99,-8.79
1628892.300908,0.841,-0.087,-0.421,-7.39,-2.2,-2.26
1628892.349871,0.873,-0.101,-0.433,-5.46,-4.18,-2.62
1628892.394303,0.881,-0.091,-0.446,-2.41,-1.77,-5.13
1628892.440576,0.871,-0.063,-0.434,0.31,-0.76,-3.42
1628892.489760,0.876,-0.037,-0.449,2.23,-0.95,-0.95
1628892.530892,0.874,-0.039,-0.448,1.98,-0.06,-1.74
1628892.580256,0.875,-0.024,-0.442,1.04,0.49,-3.85
1628892.624247,0.865,-0.022,-0.435,-0.46,-0.27,-2.59
1628892.670609,0.87,-0.043,-0.441,0.7,-1.01,0.95
1628892.720305,0.863,-0.041,-0.44,-0.03,0.03,-3.2
1628892.761737,0.854,-0.043,-0.434,0.52,-0.89,-0.37
1628892.810217,0.864,-0.051,-0.454,1.13,-2.35,-1.74
1628892.859493,0.866,-0.038,-0.454,1.53,-2.84,-1.68
1628892.900657,0.875,-0.035,-0.458,1.04,-1.95,-0.92
1628892.949914,0.876,-0.034,-0.462,1.98,-1.59,0.4
1628892.994187,0.888,-0.032,-0.47,1.13,-1.1,0.37
1628893.040230,0.909,-0.051,-0.479,0.18,-0.09,-2.66
1628893.089420,0.892,-0.032,-0.462,2.66,5.01,0.73
1628893.130806,0.839,-0.034,-0.446,2.69,4.97,0.21
1628893.180573,0.818,-0.02,-0.433,0.21,-0.12,-1.01
1628893.224261,0.832,-0.036,-0.435,0.06,-1.5,2.23
1628893.270750,0.848,-0.04,-0.445,-1.13,-3.08,-1.62
1628893.319663,0.87,-0.029,-0.458,-0.76,-4.27,0.06
1628893.361483,0.878,-0.041,-0.46,-2.59,-4.49,-0.15
1628893.410349,0.899,-0.053,-0.496,-0.89,-4.61,2.29
1628893.459074,0.876,-0.048,-0.467,-0.64,-1.25,-0.82
1628893.500606,0.876,-0.042,-0.467,-0.06,-1.01,1.13
1628893.549929,0.876,-0.037,-0.478,-0.82,1.13,0.06
1628893.594141,0.846,-0.037,-0.45,-0.43,0.43,-0.03
1628893.640401,0.82,-0.025,-0.466,-0.73,-2.93,0.79
1628893.689555,0.841,-0.043,-0.457,-2.62,-4.33,1.19
1628893.730914,0.867,-0.052,-0.473,-1.68,-5.89,2.04
1628893.780289,0.874,-0.061,-0.483,0.61,-2.81,2.2
1628893.824183,0.874,-0.047,-0.482,0.52,-0.95,1.74
1628893.870528,0.872,-0.037,-0.482,-0.27,2.59,2.17
1628893.919727,0.869,-0.045,-0.471,1.22,2.96,-1.1
1628893.960705,0.862,-0.044,-0.481,1.37,1.53,0.52
1628894.009834,0.887,-0.047,-0.489,2.93,2.99,0.73
1628894.054153,0.878,-0.032,-0.466,1.65,5.71,0.67
1628894.100383,0.882,-0.047,-0.454,4.52,1.56,7.2
1628894.150119,0.899,-0.11,-0.464,5.01,4.24,7.29
1628894.199347,0.914,-0.141,-0.424,3.02,3.02,-6.07
1628894.240392,0.92,-0.157,-0.41,9.13,7.75,-4.03
1628894.290176,0.825,-0.135,-0.341,10.74,1.95,-2.56
1628894.339616,0.738,-0.084,-0.449,12.63,-8.91,8.67
1628894.384424,0.672,-0.081,-0.564,24.51,-1.25,5.31
1628894.429758,0.953,-0.272,-1.07,112.98,42.33,25.18
1628894.470987,0.648,-0.194,-1.402,134.4,105.56,-49.04
1628894.511129,0.48,0.114,-1.345,103.92,99.06,-71.26
1628894.564304,0.634,0.051,-1.112,124.18,88.44,-54.23
1628894.610564,0.828,0.11,-0.48,73.52,117.04,-61.8
1628894.651000,0.819,0.186,-0.06,27.95,121.13,-61.01
1628894.704692,0.982,0.041,0.165,-38.7,80.72,-11.23
1628894.750155,0.844,-0.051,0.495,-85.02,91.62,6.04
1628894.790334,0.781,-0.077,0.761,-103.85,54.63,61.46
1628894.843119,0.952,-0.092,0.577,-210.7,-20.42,31.37
1628894.893947,0.788,-0.48,0.546,-187.93,15.38,69.49
1628894.934017,0.856,-0.626,0.605,-115.63,8.33,98.36
1628894.979382,1.017,-0.492,0.462,-82.16,30.37,-6.74
1628895.029809,0.988,-0.52,0.407,-36.44,39.52,-22.34
1628895.079934,0.956,-0.379,0.318,-0.12,53.47,-4.97
1628895.129859,0.866,-0.259,0.321,17.98,33.02,-8.55
1628895.170127,0.86,-0.223,0.268,5.04,19.07,-11.99
1628895.220180,0.884,-0.225,0.245,14.01,8.91,-1.46
1628895.264140,0.902,-0.235,0.231,10.99,6.56,2.99
1628895.310953,0.944,-0.311,0.217,5.71,5.1,1.74
1628895.360018,0.886,-0.25,0.257,12.39,13.61,-2.11
1628895.410508,0.874,-0.24,0.297,15.14,1.62,4.52
1628895.459739,0.888,-0.219,0.276,12.7,-2.01,5.16
1628895.501180,0.944,-0.278,0.246,6.29,-2.84,4.85
1628895.550606,0.929,-0.294,0.252,14.62,4.76,8.3
1628895.600035,0.902,-0.26,0.277,12.18,4.18,5.98
1628895.649919,0.91,-0.273,0.267,12.27,-1.04,8.33
1628895.693931,0.927,-0.265,0.252,5.86,2.23,1.28
1628895.740344,0.896,-0.268,0.273,5.46,-1.22,4.0
1628895.789463,0.926,-0.281,0.251,3.85,-6.78,5.49
1628895.830897,0.94,-0.294,0.251,-2.41,-4.97,-2.35
1628895.880748,0.933,-0.288,0.258,0.37,-1.19,-4.0
1628895.924086,0.91,-0.249,0.281,3.81,0.64,-0.61
1628895.970541,0.911,-0.266,0.277,-1.68,-2.32,-1.56
1628896.019517,0.9,-0.271,0.283,-2.2,-5.28,-2.75
1628896.061078,0.903,-0.268,0.271,0.18,-5.74,0.37
1628896.110375,0.917,-0.282,0.272,0.0,-5.74,1.89
1628896.154655,0.924,-0.291,0.254,-2.14,-9.25,-1.25
1628896.200611,0.938,-0.282,0.249,1.56,-6.44,-4.03
1628896.249705,0.913,-0.235,0.266,7.29,-4.46,0.95
1628896.290938,0.911,-0.246,0.248,2.78,-6.59,1.68
1628896.340254,0.946,-0.31,0.206,4.43,-3.11,2.78
1628896.389547,0.919,-0.268,0.219,7.87,0.67,-0.4
1628896.430867,0.894,-0.247,0.239,5.19,-2.08,2.04
1628896.480745,0.904,-0.269,0.241,1.98,-7.23,2.66
1628896.524383,0.946,-0.279,0.201,1.56,-8.24,-3.2
1628896.570708,0.938,-0.244,0.224,-2.62,-3.14,-8.18
1628896.619671,0.927,-0.235,0.209,-1.28,0.03,1.74
1628896.660849,0.926,-0.252,0.216,-3.08,1.74,2.69
1628896.710028,0.939,-0.295,0.214,-5.34,0.55,1.04
1628896.754823,0.933,-0.279,0.228,0.0,1.95,-0.03
1628896.800330,0.918,-0.247,0.244,0.27,-4.09,-2.99
1628896.849466,0.92,-0.231,0.254,-2.32,-5.65,-4.06
1628896.890653,0.928,-0.244,0.245,-4.27,-3.39,-0.55
1628896.940170,0.938,-0.29,0.229,0.4,-1.19,1.68
1628896.984523,0.928,-0.268,0.229,3.63,0.73,1.1
1628897.030763,0.928,-0.262,0.224,4.27,0.58,-0.15
1628897.080580,0.939,-0.259,0.208,5.01,-5.58,-3.88
1628897.123947,0.95,-0.243,0.188,5.22,-7.14,-10.53
1628897.171414,0.977,-0.198,0.154,-1.74,-7.81,-20.81
1628897.220944,0.939,-0.173,0.188,-1.65,1.4,-6.56
1628897.269758,0.904,-0.232,0.221,-1.07,2.56,6.23
1628897.311959,0.903,-0.265,0.218,-2.81,0.76,2.84
1628897.360114,0.9,-0.269,0.239,0.09,-3.27,1.83
1628897.404510,0.951,-0.237,0.202,2.41,-8.73,-0.85
1628897.450702,0.988,-0.185,0.173,-3.14,-2.87,-10.56
1628897.500021,0.978,-0.196,0.17,-3.02,3.11,-1.46
1628897.544117,0.943,-0.215,0.189,-2.38,7.6,2.17
1628897.590506,0.915,-0.231,0.214,-3.02,6.23,-0.76
1628897.639697,0.916,-0.224,0.22,-2.14,2.32,-1.46
1628897.680869,0.923,-0.209,0.223,-1.65,1.01,-0.4
1628897.730381,0.939,-0.22,0.22,-2.01,0.92,2.5
1628897.774356,0.939,-0.236,0.222,-1.65,2.78,2.93
1628897.819847,0.947,-0.232,0.22,-0.58,3.36,1.53
1628897.869618,0.954,-0.228,0.208,-4.46,2.11,-2.04
1628897.911789,0.957,-0.21,0.199,1.92,0.49,-1.56
1628897.961204,0.943,-0.214,0.208,-0.24,-0.43,-0.98
1628898.009361,0.934,-0.24,0.209,0.37,2.32,0.15
1628898.050738,0.919,-0.229,0.222,0.95,2.04,-0.06
1628898.099904,0.928,-0.211,0.223,0.06,-1.46,1.28
1628898.144080,0.944,-0.223,0.214,-0.4,-0.76,1.56
1628898.190456,0.965,-0.245,0.196,2.11,0.12,1.89
1628898.239388,0.969,-0.231,0.195,3.05,3.97,-2.81
1628898.280810,0.949,-0.21,0.207,2.93,6.5,-2.01
1628898.330259,0.929,-0.211,0.215,1.77,5.68,-1.1
1628898.374281,0.912,-0.206,0.227,0.82,5.01,-0.76
1628898.421019,0.91,-0.21,0.243,-1.25,1.86,1.04
1628898.469839,0.924,-0.228,0.226,-0.43,-0.4,2.44
1628898.511154,0.935,-0.222,0.241,0.06,1.4,1.4
1628898.560698,0.947,-0.225,0.23,0.37,0.09,3.23
1628898.604551,0.958,-0.226,0.221,0.61,2.59,0.95
1628898.650607,0.943,-0.214,0.231,1.16,1.86,0.61
1628898.699887,0.939,-0.212,0.236,-1.04,1.43,-1.56
1628898.741047,0.932,-0.215,0.244,-0.64,1.19,-0.92
1628898.790410,0.938,-0.226,0.23,0.27,0.4,-0.79
1628898.839547,0.938,-0.219,0.231,1.65,3.02,-2.29
1628898.880744,0.928,-0.195,0.235,0.73,1.95,-1.28
1628898.929628,0.925,-0.214,0.229,-1.92,1.4,1.04
1628898.973898,0.934,-0.222,0.23,-1.43,2.29,1.04
1628899.020128,0.934,-0.216,0.24,-2.23,0.76,0.06
1628899.069443,0.942,-0.211,0.236,-3.11,1.43,-1.1
1628899.111286,0.932,-0.202,0.248,-2.5,1.59,0.67
1628899.160106,0.934,-0.217,0.253,-3.3,1.95,3.6
1628899.204645,0.946,-0.24,0.248,-3.39,1.5,3.14
1628899.250560,0.942,-0.223,0.247,-2.23,3.75,-0.7
1628899.299791,0.96,-0.232,0.231,-3.81,4.58,-4.43
1628899.340972,0.957,-0.216,0.225,-2.23,6.01,-5.71
1628899.390396,0.926,-0.213,0.242,-0.24,8.42,-0.92
1628899.439548,0.911,-0.223,0.262,3.17,5.74,4.88
1628899.480661,0.897,-0.232,0.278,3.11,2.84,2.53
1628899.530117,0.902,-0.227,0.286,2.35,2.44,-2.01
1628899.570936,0.909,-0.232,0.282,3.17,-0.79,-0.55
1628899.620763,0.926,-0.208,0.258,2.66,1.4,-0.49
1628899.669531,0.925,-0.189,0.259,1.8,0.43,3.14
1628899.711908,0.936,-0.21,0.253,0.34,-0.27,3.66
1628899.760070,0.931,-0.22,0.264,1.95,1.4,6.41
1628899.804400,0.926,-0.227,0.269,2.93,0.06,8.15
1628899.850550,0.927,-0.25,0.271,1.37,0.7,2.62
1628899.899796,0.929,-0.23,0.271,1.71,0.34,-2.5
1628899.940896,0.932,-0.217,0.267,1.5,0.52,-2.14
1628899.990285,0.924,-0.218,0.267,1.59,2.47,0.79
1628900.034339,0.915,-0.228,0.273,-0.15,0.61,-0.43
1628900.080478,0.924,-0.235,0.266,-0.06,1.34,-0.43
1628900.129854,0.924,-0.231,0.266,1.13,0.7,0.09
1628900.170969,0.923,-0.229,0.274,0.67,1.5,-0.67
1628900.220284,0.929,-0.237,0.277,2.69,1.43,-0.31
1628900.269487,0.943,-0.25,0.276,5.62,6.1,-1.1
1628900.312300,0.945,-0.266,0.26,10.68,8.7,-2.23
1628900.361443,0.883,-0.211,0.334,17.33,15.08,-0.58
1628900.414221,0.813,-0.19,0.513,22.34,10.77,19.47
1628900.464152,0.826,-0.293,0.603,59.82,2.32,58.9
1628900.515150,0.832,-0.285,0.729,72.3,15.38,37.02
1628900.560683,0.655,-0.04,0.98,107.21,29.51,50.9
1628900.611568,0.612,-0.342,1.079,99.52,-20.69,101.69
1628900.664375,0.653,-0.451,1.004,74.92,-59.82,71.6
1628900.704798,0.729,-0.394,0.759,28.44,-105.14,20.14
1628900.750482,0.903,-0.092,0.418,-65.16,-126.5,-92.04
1628900.790922,0.576,0.061,0.238,-103.55,-137.55,-87.19
1628900.834192,0.258,0.033,-0.484,-111.7,-208.66,-10.07
1628900.880719,0.485,-0.242,-1.821,-165.01,-290.23,25.51
1628900.924359,1.237,-0.341,-1.956,-251.11,-163.46,-229.26
1628900.970752,1.026,-0.337,-0.631,-20.91,-32.62,15.56
1628901.010960,0.881,-0.041,-0.662,69.73,12.3,87.98
1628901.060677,0.64,0.222,-0.363,22.28,4.79,-17.43
1628901.113840,0.817,0.122,-0.478,-23.68,-33.81,-38.48
1628901.159390,0.965,0.1,-0.499,-7.69,-22.06,-3.85
1628901.200757,0.926,0.047,-0.518,0.7,-5.07,18.46
1628901.250425,0.861,-0.011,-0.483,-8.27,-3.17,-5.52
1628901.300743,0.866,0.0,-0.478,-10.25,-5.1,-15.63
1628901.350125,0.84,0.018,-0.503,-5.62,-0.67,-0.61
1628901.394101,0.841,-0.031,-0.477,-2.11,-1.1,7.17
1628901.440387,0.851,-0.02,-0.493,-4.06,-0.7,-6.71
1628901.480593,0.834,-0.005,-0.469,-5.16,0.92,-7.63
1628901.520902,0.85,-0.004,-0.493,-1.37,-2.99,1.56
1628901.570932,0.851,-0.009,-0.488,0.18,-0.85,3.3
1628901.611146,0.836,-0.012,-0.492,0.27,-0.92,0.12
1628901.661856,0.852,-0.001,-0.506,1.4,-0.34,-0.43
1628901.709451,0.865,0.026,-0.484,2.44,0.89,-1.16
1628901.750809,0.84,0.043,-0.492,0.85,4.09,1.01
1628901.799866,0.837,-0.0,-0.492,-4.94,0.15,2.26
1628901.844008,0.858,-0.021,-0.506,-1.62,-0.95,4.85
1628901.890489,0.859,-0.015,-0.503,1.4,0.64,0.49
1628901.939572,0.844,0.022,-0.476,4.18,2.72,-1.28
1628901.980903,0.814,0.049,-0.472,1.98,2.32,0.55
1628902.029950,0.805,0.035,-0.475,-1.25,-2.75,4.91
1628902.074403,0.823,0.009,-0.483,-4.15,-3.75,3.17
1628902.120383,0.856,-0.013,-0.501,-5.34,-6.53,2.75
1628902.169553,0.841,-0.025,-0.491,-3.36,-1.65,0.58
1628902.211673,0.842,-0.013,-0.498,-3.72,-2.84,-2.69
1628902.262631,0.846,0.001,-0.5,-4.73,-4.3,-1.86
1628902.305170,0.857,-0.012,-0.499,-2.9,-3.2,2.96
1628902.350787,0.857,-0.016,-0.515,-2.38,-2.9,-0.46
1628902.399963,0.845,-0.002,-0.51,-1.74,-1.5,-3.05
1628902.441064,0.852,0.015,-0.515,-1.22,-1.13,-3.02
1628902.490431,0.849,0.017,-0.513,-1.65,-1.62,-0.34
1628902.539631,0.844,0.012,-0.505,-1.46,0.73,0.31
1628902.580910,0.847,0.013,-0.516,-1.74,-0.37,-0.31
1628902.630286,0.83,0.019,-0.504,-2.01,1.22,-0.4
1628902.674280,0.829,0.01,-0.502,-2.38,-0.4,0.37
1628902.720554,0.829,0.009,-0.502,-2.9,1.34,1.28
1628902.769603,0.816,0.016,-0.498,-1.43,-0.79,-0.92
1628902.811579,0.831,0.008,-0.508,-2.23,-2.93,0.64
1628902.860153,0.851,-0.009,-0.518,-1.89,-1.86,-0.06
1628902.904612,0.852,-0.006,-0.528,-0.52,-0.92,-1.34
1628902.950717,0.851,-0.0,-0.527,1.07,-0.21,-1.16
1628902.999864,0.85,0.021,-0.527,2.29,1.59,-2.01
1628903.041023,0.832,0.027,-0.509,1.56,2.93,-0.55
1628903.090150,0.822,0.026,-0.502,0.27,0.82,1.34
1628903.139497,0.825,0.019,-0.501,-0.49,0.85,-0.73
1628903.180558,0.823,0.026,-0.478,-1.56,2.32,-0.76
1628903.229801,0.829,0.015,-0.497,-1.43,-1.1,-0.06
1628903.271097,0.835,0.008,-0.513,-1.34,-1.04,-0.82
1628903.321075,0.845,0.0,-0.525,-0.92,-1.68,-1.5
1628903.369596,0.847,0.012,-0.523,1.04,0.4,-3.48
1628903.411448,0.83,0.026,-0.516,2.17,1.22,-1.89
1628903.460066,0.83,0.042,-0.508,1.68,1.68,-1.98
1628903.504326,0.822,0.041,-0.502,0.37,0.7,-1.74
1628903.550659,0.811,0.048,-0.488,2.44,2.72,0.64
1628903.599827,0.808,0.064,-0.495,-1.4,-0.98,0.46
1628903.640978,0.809,0.036,-0.501,-5.46,-4.24,1.68
1628903.690239,0.856,0.005,-0.532,-5.28,-6.2,0.67
1628903.734629,0.863,-0.005,-0.548,-3.11,-1.86,0.7
1628903.780535,0.863,0.006,-0.542,0.61,0.52,-0.55
1628903.830032,0.841,0.027,-0.505,0.64,3.39,1.07
1628903.871087,0.829,0.025,-0.486,-0.15,1.83,2.38
1628903.920916,0.836,0.022,-0.503,-0.61,4.27,3.05
1628903.969683,0.818,0.012,-0.494,-0.52,1.59,3.02
1628904.011364,0.821,0.013,-0.524,-2.38,1.56,0.76
1628904.060074,0.813,-0.002,-0.509,-1.5,-1.89,0.4
1628904.104619,0.823,0.017,-0.525,0.09,0.24,-1.59
1628904.150453,0.831,0.015,-0.547,-0.37,-0.61,-0.52
1628904.199785,0.844,0.021,-0.51,2.01,7.6,-1.46
1628904.240868,0.838,0.035,-0.515,-0.4,3.75,-1.16
1628904.290323,0.857,0.025,-0.512,-2.01,0.7,2.47
1628904.334635,0.847,0.016,-0.503,-1.46,1.5,2.84
1628904.380716,0.836,0.014,-0.498,-2.38,1.65,3.33
1628904.430124,0.833,0.0,-0.497,-0.92,1.28,2.56
1628904.471003,0.833,0.009,-0.5,-1.4,2.2,0.18
1628904.520251,0.836,0.002,-0.512,-1.01,-0.03,0.95
1628904.564794,0.846,0.006,-0.523,-1.59,-0.12,-1.22
1628904.611693,0.84,0.01,-0.516,-0.31,0.73,0.58
1628904.659792,0.851,0.011,-0.521,-0.89,0.82,-0.7
1628904.700810,0.84,0.014,-0.506,0.09,1.86,0.0
1628904.750127,0.831,0.016,-0.502,0.37,1.59,0.49
1628904.799380,0.83,0.021,-0.501,-0.67,0.61,-0.64
1628904.840578,0.824,0.012,-0.502,-1.74,-1.68,2.69
1628904.890267,0.821,0.008,-0.491,-0.89,-0.09,0.03
1628904.934453,0.824,0.016,-0.506,-1.46,-1.56,-0.18
1628904.980547,0.833,-0.0,-0.504,0.18,-1.04,1.07
1628905.021052,0.832,0.014,-0.509,0.7,-0.43,-1.92
1628905.071199,0.848,0.02,-0.516,0.34,-2.14,-0.89
1628905.120660,0.861,-0.025,-0.532,5.13,1.92,3.27
1628905.173037,1.051,-0.233,-0.712,49.78,27.62,13.28
1628905.220812,0.774,-0.244,-1.023,179.42,108.19,99.12
1628905.271174,0.841,-0.242,-1.533,199.16,131.75,4.12
1628905.312535,0.638,-0.054,-0.982,159.0,176.82,-56.49
1628905.354625,0.738,-0.03,-0.479,144.6,110.57,-3.51
1628905.400257,0.846,-0.096,0.0,99.77,89.02,-19.68
1628905.450840,0.767,-0.123,0.131,67.87,39.74,-25.97
1628905.501151,0.876,-0.024,0.242,57.89,46.57,-8.0
1628905.554280,0.818,0.002,0.413,-12.27,58.02,-42.51
1628905.600181,0.853,0.058,0.443,0.76,30.79,-16.02
1628905.644207,0.956,0.08,0.492,-20.29,8.58,-9.28
1628905.694178,0.911,0.234,0.218,-54.51,24.14,27.01
1628905.734608,0.86,-0.077,0.53,-123.2,58.32,29.21
1628905.780434,0.894,-0.43,0.466,-101.63,1.07,26.22
1628905.821093,0.927,-0.486,0.514,-94.49,44.01,-13.55
1628905.870895,0.854,-0.279,0.555,-63.08,15.47,-37.97
1628905.911047,0.848,-0.127,0.48,-56.15,12.63,-34.82
1628905.961622,0.876,-0.214,0.389,-23.53,-8.45,-11.54
1628906.010879,0.924,-0.179,0.263,-9.28,-1.37,-7.93
1628906.060731,0.943,-0.177,0.253,-10.59,8.42,1.25
1628906.104445,0.946,-0.205,0.247,-2.5,8.67,13.28
1628906.154567,0.942,-0.23,0.256,-1.16,15.29,10.74
1628906.201137,0.944,-0.238,0.265,2.47,7.11,3.57
1628906.250708,0.936,-0.219,0.279,0.73,10.35,-0.95
1628906.300198,0.942,-0.243,0.278,-2.41,11.41,-3.05
1628906.349916,0.934,-0.236,0.269,3.66,11.35,-4.73
1628906.394211,0.913,-0.198,0.302,4.12,15.38,-5.28
1628906.440821,0.909,-0.182,0.303,8.85,5.95,3.91
1628906.490254,0.912,-0.202,0.31,-10.1,8.73,-2.66
1628906.534670,0.922,-0.232,0.324,-5.16,7.39,-0.4
1628906.580626,0.914,-0.223,0.36,2.96,7.54,4.76
1628906.630178,0.93,-0.231,0.342,2.32,5.04,1.19
1628906.671066,0.926,-0.227,0.367,4.21,9.34,-6.65
1628906.720844,0.924,-0.181,0.363,8.3,7.05,-7.97
1628906.770931,0.94,-0.168,0.328,-3.2,17.52,-15.69
1628906.811123,0.907,-0.197,0.342,-13.61,18.92,-18.19
1628906.859908,0.877,-0.19,0.331,1.31,22.95,-1.4
1628906.900259,0.85,-0.241,0.411,15.32,31.13,11.29
1628906.950094,0.83,-0.184,0.43,21.09,15.69,9.4
1628906.999780,0.837,-0.175,0.436,11.23,7.84,4.3
1628907.040539,0.853,-0.204,0.434,6.07,-7.2,0.18
1628907.080884,0.874,-0.188,0.417,4.36,-8.12,-1.86
1628907.121055,0.881,-0.174,0.414,7.29,-6.71,4.06
1628907.170739,0.876,-0.168,0.43,2.81,-10.22,5.25
1628907.211093,0.847,-0.155,0.462,17.76,-13.43,21.0
1628907.261250,0.921,-0.169,0.333,11.47,-32.23,19.53
1628907.310308,0.92,-0.242,0.388,-1.46,0.64,6.59
1628907.354570,0.945,-0.231,0.338,6.32,-6.56,6.47
1628907.400814,0.921,-0.207,0.357,-1.19,3.75,-5.65
1628907.450005,0.893,-0.191,0.392,8.48,5.43,0.89
1628907.491107,0.895,-0.192,0.37,-0.49,5.68,-4.46
1628907.540382,0.888,-0.237,0.402,0.92,1.74,-6.41
1628907.580495,0.939,-0.32,0.378,12.67,-9.74,-3.42
1628907.624075,0.927,-0.212,0.351,30.12,-9.8,-14.4
1628907.674170,0.869,-0.01,0.375,41.26,-3.05,-1.04
1628907.724160,0.843,-0.054,0.418,27.89,11.2,23.19
1628907.769465,0.866,-0.224,0.432,8.58,0.46,11.69
1628907.810452,0.874,-0.192,0.421,-5.16,0.73,-6.74
1628907.860266,0.888,-0.167,0.416,-4.18,7.63,-13.18
1628907.900306,0.885,-0.106,0.44,3.94,1.56,-6.41
1628907.940666,0.889,-0.119,0.413,-1.89,5.77,-8.18
1628907.980855,0.816,-0.115,0.541,1.89,0.58,0.4
1628908.024030,0.861,-0.201,0.52,21.82,-16.05,21.7
1628908.064226,0.896,-0.21,0.484,29.42,-17.91,4.61
1628908.114301,0.712,-0.126,0.695,91.8,4.39,41.41
1628908.154695,0.766,-0.108,0.603,96.16,-15.2,51.73
1628908.199920,0.797,-0.178,0.539,56.61,-6.99,27.83
1628908.244136,0.696,-0.105,0.65,80.02,-4.64,36.47
1628908.294403,0.88,0.097,0.504,-22.55,14.1,-0.09
1628908.340704,1.017,-0.044,0.568,-15.87,-24.57,-34.67
1628908.380873,0.925,0.099,0.634,-30.3,2.14,-50.39
1628908.424461,0.792,0.073,0.654,-31.89,-33.91,-17.76
1628908.464483,0.822,-0.039,0.488,-32.53,-49.44,44.37
1628908.511049,0.841,-0.217,0.26,-64.15,-79.04,20.94
1628908.561561,0.735,-0.217,0.184,-86.98,-88.96,-25.79
1628908.612293,0.79,-0.158,-0.124,-83.32,-118.53,-22.92
1628908.654218,0.691,-0.116,-0.164,-99.98,-140.63,-40.59
1628908.700711,0.746,0.03,-0.517,-102.76,-163.43,-56.09
1628908.741216,0.719,0.133,-0.766,-141.73,-170.66,-83.1
1628908.784616,0.906,0.217,-1.057,-142.4,-168.71,-49.17
1628908.831071,0.839,0.007,-0.885,-99.15,-87.86,43.06
1628908.884273,1.201,-0.285,-0.742,-30.0,-55.27,74.56
1628908.934101,0.897,-0.014,-0.636,11.23,16.63,2.14
1628908.983890,0.792,0.129,-0.596,-0.85,-2.59,-13.55
1628909.030454,0.855,0.076,-0.541,4.46,3.42,8.18
1628909.080307,0.835,0.067,-0.501,9.34,1.04,16.66
1628909.130121,0.811,0.059,-0.476,1.01,2.9,1.1
1628909.171141,0.826,0.057,-0.465,-0.82,-4.55,2.75
1628909.211523,0.832,0.018,-0.472,-2.5,-0.82,16.24
1628909.260075,0.848,-0.048,-0.483,-5.55,-5.13,11.44
1628909.301178,0.835,-0.035,-0.498,-8.24,-7.02,-1.65
1628909.350549,0.826,-0.033,-0.502,-4.21,-1.65,8.94
1628909.404768,0.85,-0.09,-0.513,-2.44,-8.48,9.74
1628909.454544,0.861,-0.094,-0.529,0.85,2.59,1.4
1628909.500797,0.8,-0.039,-0.506,3.33,2.38,-1.62
1628909.550104,0.787,-0.02,-0.482,0.15,2.23,-2.2
1628909.590971,0.82,-0.029,-0.494,0.21,-6.04,3.33
1628909.640455,0.849,-0.054,-0.521,0.98,-1.92,4.67
1628909.689605,0.867,-0.03,-0.528,1.22,-3.94,0.89
1628909.731074,0.884,-0.03,-0.548,-2.29,-3.27,-2.14
1628909.783037,0.879,-0.04,-0.545,1.43,5.04,3.72
1628909.824156,0.806,-0.052,-0.506,2.5,6.32,4.67
1628909.870388,0.796,-0.049,-0.523,0.55,0.76,1.98
1628909.910558,0.778,-0.051,-0.475,-1.62,0.55,-0.64
1628909.950831,0.776,-0.06,-0.466,0.49,-0.52,1.4
1628909.999992,0.786,-0.053,-0.475,-0.85,-0.7,-1.62
1628910.040897,0.823,-0.036,-0.548,-3.42,-5.74,-4.76
1628910.081567,0.892,0.016,-0.555,-5.98,-6.13,-10.38
1628910.124071,0.861,0.037,-0.527,-5.65,-2.78,-1.92
1628910.170520,0.846,0.006,-0.516,-9.03,-4.36,8.27
1628910.220574,0.826,-0.044,-0.519,-10.16,-1.71,4.18
1628910.264592,0.803,-0.068,-0.518,-9.4,-2.23,4.82
1628910.315502,0.778,-0.083,-0.526,-6.74,-2.5,2.08
1628910.359818,0.774,-0.067,-0.519,-3.05,-6.26,-1.28
1628910.401057,0.806,-0.05,-0.547,-2.87,-5.92,-2.38
1628910.450371,0.825,-0.032,-0.54,-0.43,-5.95,-1.01
1628910.494424,0.845,-0.005,-0.559,-1.28,-7.39,-2.93
1628910.540742,0.865,-0.002,-0.578,-5.62,-4.97,-3.85
1628910.590171,0.881,-0.022,-0.6,-2.53,-2.81,1.92
1628910.631231,0.877,-0.034,-0.598,-0.43,2.47,2.47
1628910.680480,0.828,-0.033,-0.56,1.25,6.84,0.61
1628910.729535,0.799,-0.022,-0.544,-0.92,5.34,-1.04
1628910.770905,0.787,-0.024,-0.531,0.09,6.1,0.18
1628910.820666,0.779,-0.012,-0.507,-0.55,1.5,-3.14
1628910.864394,0.795,0.013,-0.523,-3.08,-1.04,-6.13
1628910.910989,0.841,0.015,-0.552,-5.25,-2.26,-2.62
1628910.959786,0.861,0.018,-0.568,-4.85,0.73,-0.85
1628911.000960,0.856,0.019,-0.57,-5.8,3.57,-0.73
1628911.050297,0.843,0.009,-0.564,-4.21,4.97,2.26
1628911.094607,0.82,-0.015,-0.536,-3.6,8.36,3.17
1628911.140431,0.794,-0.022,-0.512,-2.9,5.98,2.62
1628911.190053,0.788,-0.022,-0.504,-2.44,4.58,1.16
1628911.230966,0.774,-0.023,-0.493,-1.46,2.93,1.01
1628911.280410,0.787,-0.008,-0.494,-1.56,-1.43,-0.73
1628911.324417,0.8,-0.004,-0.501,-1.65,-2.72,0.58
1628911.370863,0.814,-0.002,-0.511,-2.56,-4.18,0.4
1628911.420942,0.838,-0.015,-0.538,-1.62,-4.15,2.59
1628911.461409,0.831,-0.024,-0.532,0.12,-2.72,2.93
1628911.511588,0.842,-0.019,-0.546,0.37,-2.32,-1.13
1628911.559758,0.822,-0.008,-0.54,1.25,-0.31,-0.15
1628911.601021,0.8,-0.006,-0.524,2.32,-0.92,-0.79
1628911.650193,0.807,0.007,-0.532,0.76,-3.54,-1.86
1628911.694361,0.81,0.004,-0.536,0.52,-2.62,0.09
1628911.740649,0.813,0.004,-0.545,0.79,-4.64,0.49
1628911.790007,0.821,0.015,-0.54,0.12,-4.06,-0.95
1628911.831049,0.815,0.02,-0.556,1.19,-4.49,2.96
1628911.872367,0.81,0.018,-0.543,0.76,-3.11,4.39
1628911.924358,0.814,-0.001,-0.561,-0.61,-4.24,6.1
1628911.970591,0.815,-0.023,-0.554,-1.19,-3.91,5.89
1628912.019961,0.808,-0.027,-0.55,-1.34,-0.89,5.01
1628912.061637,0.807,-0.026,-0.562,-2.5,-2.81,3.57
1628912.110714,0.805,-0.041,-0.554,-0.12,-1.31,6.62
1628912.160143,0.819,-0.082,-0.557,8.91,-0.49,16.42
1628912.209727,0.991,-0.216,-0.618,42.6,8.64,30.92
1628912.250152,1.097,-0.377,-0.912,170.75,50.17,98.15
1628912.290743,0.706,-0.265,-1.158,226.11,89.69,89.18
1628912.334127,0.687,-0.199,-0.516,114.38,109.16,-78.4
1628912.374549,0.804,-0.112,-0.182,62.47,63.05,-96.53
1628912.414609,0.855,-0.012,0.001,22.77,53.25,-70.93
1628912.460466,0.877,-0.077,0.08,11.93,16.91,-17.0
1628912.511468,0.885,-0.103,0.18,-14.71,15.96,-25.73
1628912.560892,0.745,-0.072,0.244,-44.25,-18.31,-34.91
1628912.611458,0.726,-0.031,-0.018,-71.05,-68.48,-16.45
1628912.664707,0.779,0.016,-0.393,-115.85,-91.98,-60.15
1628912.711817,0.717,0.136,-0.631,-158.24,-103.15,-109.32
1628912.755160,0.587,0.23,-0.727,-138.52,-90.91,-58.69
1628912.800352,0.762,0.052,-0.701,-43.64,-102.05,120.46
1628912.840404,1.191,-0.441,-0.785,4.03,-60.15,146.12
1628912.880464,1.128,-0.276,-0.836,42.27,-3.81,33.69
1628912.930614,0.789,0.102,-0.632,-2.5,3.33,-80.84
1628912.970749,0.801,0.186,-0.6,-4.7,-2.66,-40.47
1628913.014460,0.866,0.149,-0.634,18.46,3.85,27.01
1628913.064389,0.783,0.006,-0.584,21.45,8.82,38.7
1628913.114469,0.756,0.016,-0.567,7.93,5.83,-5.77
1628913.161477,0.733,0.054,-0.52,0.15,-0.12,-15.44
1628913.210279,0.752,0.051,-0.513,4.88,0.03,7.35
1628913.260137,0.815,-0.04,-0.523,4.79,-6.53,13.43
1628913.304655,0.914,-0.135,-0.616,18.77,11.87,5.62
1628913.350586,0.862,-0.21,-0.607,34.33,32.17,-22.68
1628913.400775,0.82,-0.087,-0.514,43.28,43.64,-40.71
1628913.451047,0.76,0.042,-0.436,26.09,35.1,-41.87
1628913.504581,0.827,0.131,-0.441,5.25,1.37,-35.43
1628913.551468,0.762,0.117,-0.449,-22.16,-7.45,-21.42
1628913.604667,0.755,0.075,-0.471,-27.13,-19.41,-30.79
1628913.650802,0.793,0.095,-0.499,-28.08,-31.37,-41.29
1628913.700596,0.88,0.176,-0.618,-17.18,-27.95,-28.57
1628913.750902,0.939,0.074,-0.618,-5.89,6.68,-32.44
1628913.800905,0.905,0.201,-0.592,-5.13,18.95,-101.08
1628913.850871,0.821,0.386,-0.565,5.62,22.98,-59.69
1628913.901342,0.74,0.486,-0.49,13.06,20.08,5.22
1628913.954203,0.73,0.393,-0.443,9.4,13.4,48.19
1628914.004108,0.782,0.276,-0.464,-5.52,1.43,30.73
1628914.051098,0.808,0.291,-0.487,-14.22,-2.72,8.18
1628914.101082,0.817,0.191,-0.475,-4.88,-1.43,26.25
1628914.151080,0.806,0.153,-0.465,9.25,5.71,32.44
1628914.201104,0.806,0.139,-0.515,17.27,6.87,40.83
1628914.253981,0.857,0.082,-0.454,21.33,10.5,48.52
1628914.304494,0.85,0.065,-0.449,5.71,4.55,4.88
1628914.350869,0.85,0.11,-0.457,5.28,3.23,1.65
1628914.400028,0.864,0.12,-0.454,7.05,1.43,4.27
1628914.441126,0.856,0.11,-0.455,4.64,1.53,4.49
1628914.490406,0.855,0.125,-0.462,0.76,1.4,-0.24
1628914.534747,0.85,0.124,-0.458,1.31,2.66,4.39
1628914.580930,0.853,0.117,-0.476,-0.27,2.14,0.55
1628914.630183,0.829,0.122,-0.463,-0.24,-0.06,5.71
1628914.674480,0.848,0.104,-0.473,1.68,0.89,11.66
1628914.720854,0.85,0.083,-0.45,-0.95,-0.12,2.81
1628914.770400,0.842,0.084,-0.453,-1.53,-5.04,12.79
1628914.810681,0.843,0.073,-0.445,-0.67,-6.23,12.57
1628914.851342,0.836,0.06,-0.485,-4.12,-10.93,11.47
1628914.901080,0.834,0.036,-0.493,-3.97,-8.42,11.11
1628914.950210,0.839,0.059,-0.491,-0.21,-6.81,4.49
1628914.994491,0.845,0.069,-0.488,2.78,-1.04,4.09
1628915.040498,0.884,0.084,-0.48,-0.12,-0.37,-2.44
1628915.090213,0.86,0.069,-0.418,3.3,8.85,-0.46
1628915.134351,0.874,0.033,-0.467,13.34,12.02,0.67
1628915.184379,0.842,0.013,-0.537,22.25,13.15,5.28
1628915.230175,0.931,-0.1,-0.678,54.14,37.29,31.89
1628915.280635,0.927,-0.222,-0.788,101.02,69.46,37.11
1628915.331165,0.812,-0.042,-0.726,92.44,76.78,-28.93
1628915.384287,0.847,-0.029,-0.544,83.47,67.32,5.71
1628915.434636,0.83,-0.013,-0.37,43.98,61.98,-24.66
1628915.480533,0.9,-0.048,-0.319,35.16,44.1,-5.46
1628915.521304,0.893,-0.03,-0.369,22.83,38.48,-23.16
1628915.571003,0.867,-0.159,-0.197,33.88,19.23,21.52
1628915.611312,0.978,-0.083,-0.29,50.48,12.67,-4.18
1628915.661101,0.906,-0.018,-0.13,29.15,24.32,-22.98
1628915.711661,0.927,0.035,-0.042,22.31,14.34,3.81
1628915.761345,0.968,0.008,0.03,36.04,-11.69,16.85
1628915.810909,1.057,-0.119,-0.118,-9.67,2.32,27.16
1628915.850987,1.077,-0.195,0.047,-2.26,25.67,36.62
1628915.901420,1.075,-0.141,-0.035,-36.44,32.96,35.49
1628915.954300,0.924,-0.283,0.177,-48.86,45.59,25.94
1628916.000008,0.912,-0.298,0.27,-65.98,83.74,5.34
1628916.050087,0.848,-0.126,0.303,-27.1,43.82,14.04
1628916.100571,0.823,-0.291,0.356,-68.18,74.07,7.9
1628916.151143,0.925,-0.375,0.292,-3.51,52.64,29.45
1628916.201100,0.949,-0.264,0.176,-22.13,94.67,-5.77
1628916.254015,0.774,-0.115,0.432,-27.56,77.3,2.69
1628916.294117,0.79,-0.057,0.485,-28.87,64.18,16.39
1628916.334415,0.781,-0.257,0.637,-42.7,42.85,17.09
1628916.385134,0.916,-0.443,0.523,0.15,-11.63,24.48
1628916.434875,0.985,-0.383,0.313,-10.53,-16.36,-18.62
1628916.484980,0.899,-0.23,0.308,7.17,5.16,-16.14
1628916.531391,0.827,-0.234,0.362,10.41,1.4,8.21
1628916.584403,0.861,-0.341,0.342,10.47,3.6,10.44
1628916.631153,0.887,-0.355,0.337,14.86,-1.8,6.53
1628916.680723,0.891,-0.274,0.312,7.11,0.27,-0.03
1628916.729974,0.886,-0.284,0.311,4.97,1.22,4.64
1628916.771107,0.885,-0.349,0.331,5.86,1.86,5.68
1628916.820639,0.895,-0.33,0.32,4.18,4.52,-2.66
1628916.864602,0.868,-0.286,0.342,5.16,1.37,-0.31
1628916.910552,0.871,-0.274,0.339,2.56,-0.4,0.82
1628916.961317,0.847,-0.286,0.367,9.77,-0.34,14.83
1628917.004449,0.887,-0.3,0.331,5.65,-1.83,16.82
1628917.050943,0.877,-0.355,0.374,-6.5,-6.68,7.81
1628917.100572,0.889,-0.341,0.348,0.58,-8.06,4.76
1628917.150012,0.887,-0.338,0.321,0.31,-10.28,3.69
1628917.191247,0.898,-0.36,0.299,0.31,-3.02,0.06
1628917.240461,0.884,-0.347,0.305,4.3,3.23,1.89
1628917.284785,0.873,-0.347,0.333,7.63,0.7,1.98
1628917.331549,0.873,-0.317,0.329,19.56,0.24,11.66
1628917.373103,0.904,-0.324,0.292,20.57,4.49,13.89
1628917.420917,0.886,-0.355,0.343,14.44,13.58,7.93
1628917.461299,0.855,-0.339,0.378,13.7,5.28,7.32
1628917.510706,0.855,-0.336,0.357,5.8,-5.71,3.66
1628917.551400,0.848,-0.339,0.357,-1.77,-5.68,-4.94
1628917.600695,0.85,-0.348,0.34,2.08,-2.96,-0.46
1628917.650036,0.862,-0.323,0.332,2.29,6.59,-0.64
1628917.691357,0.86,-0.346,0.368,5.52,10.16,6.07
1628917.740540,0.869,-0.334,0.361,2.84,-1.1,5.49
1628917.789718,0.866,-0.349,0.37,-6.23,-4.21,-3.54
1628917.831136,0.871,-0.342,0.354,0.98,-3.45,-0.67
1628917.880265,0.85,-0.302,0.349,-2.08,0.34,-3.17
1628917.923974,0.842,-0.334,0.368,0.12,2.59,1.5
1628917.973601,0.862,-0.331,0.356,0.79,4.0,-1.92
1628918.019596,0.865,-0.325,0.37,0.46,6.87,1.89
1628918.060711,0.864,-0.351,0.379,-0.06,-1.31,3.85
1628918.111198,0.856,-0.353,0.359,1.5,-4.06,0.03
1628918.154555,0.868,-0.348,0.328,0.0,1.62,-1.43
1628918.200771,0.852,-0.341,0.353,1.83,6.16,0.24
1628918.250131,0.858,-0.33,0.37,1.25,3.33,1.77
1628918.291238,0.866,-0.337,0.361,1.37,-0.52,2.04
1628918.340429,0.886,-0.364,0.346,-2.11,-0.92,-1.74
1628918.385303,0.879,-0.333,0.344,-2.41,-1.8,-6.84
1628918.431245,0.865,-0.301,0.339,-2.35,2.38,-4.79
1628918.480450,0.851,-0.33,0.357,1.04,5.68,0.98
1628918.521327,0.843,-0.349,0.382,-1.22,3.88,-0.03
1628918.571600,0.858,-0.323,0.368,-3.57,2.56,-2.26
1628918.619703,0.85,-0.323,0.385,-2.62,6.9,0.61
1628918.661143,0.841,-0.342,0.398,-2.17,3.14,4.12
1628918.711374,0.852,-0.353,0.391,-2.78,2.23,1.07
1628918.754467,0.853,-0.348,0.39,-0.58,1.4,1.19
1628918.800880,0.872,-0.347,0.364,-1.56,1.28,-2.32
1628918.849817,0.865,-0.329,0.367,-7.75,5.37,-8.06
1628918.891110,0.853,-0.331,0.381,-9.49,5.43,-6.16
1628918.932560,0.848,-0.34,0.386,-4.27,2.84,-1.95
1628918.974557,0.85,-0.341,0.39,1.13,1.5,1.01
1628919.021174,0.843,-0.323,0.39,1.43,-1.56,1.71
1628919.069876,0.855,-0.319,0.374,-0.85,1.37,1.19
1628919.111330,0.853,-0.35,0.387,2.62,1.95,5.13
1628919.160638,0.86,-0.33,0.387,-0.76,3.6,0.09
1628919.204633,0.85,-0.332,0.398,1.46,2.56,2.26
1628919.250817,0.85,-0.354,0.387,1.71,-0.18,0.79
1628919.300130,0.853,-0.329,0.376,2.9,0.0,0.03
1628919.341179,0.845,-0.335,0.378,1.68,1.46,1.25
1628919.390209,0.848,-0.346,0.396,0.85,0.64,2.26
1628919.434393,0.858,-0.34,0.386,-0.76,0.12,0.61
1628919.480583,0.865,-0.36,0.391,-0.27,1.28,-0.18
1628919.529959,0.848,-0.327,0.408,1.01,1.46,-2.84
1628919.571115,0.839,-0.307,0.407,-0.92,0.73,-0.7
1628919.620795,0.845,-0.352,0.409,1.31,-0.03,0.76
1628919.669885,0.848,-0.27,0.387,-0.49,-1.5,-2.14
1628919.712008,0.828,-0.249,0.385,-3.33,1.37,6.78
1628919.760561,0.838,-0.305,0.386,-4.61,4.3,14.5
1628919.811322,0.857,-0.197,0.355,-7.69,6.59,17.88
1628919.860737,0.854,-0.173,0.323,-40.96,15.26,32.5
1628919.900746,0.798,-0.568,0.481,-3.51,24.11,91.71
1628919.941062,0.745,-0.739,0.463,51.7,30.49,115.7
1628919.981245,0.66,-0.655,0.522,54.9,34.97,74.5
1628920.021365,0.566,-0.549,0.592,27.04,12.12,22.37
1628920.071707,0.586,-0.482,0.647,20.69,-17.37,8.39
1628920.124092,0.663,-0.503,0.753,36.41,-47.79,54.78
1628920.164498,0.562,-0.407,0.916,84.29,-86.7,135.78
1628920.210890,0.461,-0.496,0.702,74.28,-196.57,165.99
1628920.254456,0.434,-0.75,0.524,30.92,-250.98,119.14
1628920.300765,0.494,-0.887,0.361,94.0,-217.84,45.99
1628920.340930,0.613,-0.808,0.171,87.19,-201.27,14.74
1628920.381015,0.685,-0.954,0.094,64.36,-198.89,-6.41
1628920.421320,0.678,-0.936,0.024,93.05,-166.91,-31.28
1628920.464182,0.705,-0.923,-0.099,86.34,-144.6,-39.46
1628920.504429,0.711,-0.966,-0.219,67.35,-117.1,-54.35
1628920.550816,0.717,-0.825,-0.258,40.25,-76.24,-79.78
1628920.600942,0.691,-0.568,-0.248,47.91,-60.03,-65.74
1628920.654537,0.715,-0.482,-0.236,26.46,-28.96,-47.98
1628920.700620,0.719,-0.421,-0.181,19.96,-21.21,-37.78
1628920.750309,0.78,-0.372,-0.149,8.51,-7.75,-29.54
1628920.794695,0.79,-0.336,-0.078,8.27,-5.46,-18.59
1628920.844672,0.874,-0.379,-0.009,25.12,-21.94,-2.29
1628920.890290,0.962,-0.421,-0.108,3.48,-28.57,-3.75
1628920.934725,0.968,-0.431,-0.119,-15.84,-23.9,-17.7
1628920.980974,0.904,-0.371,-0.159,-4.46,-24.84,-14.86
1628921.024577,0.883,-0.359,-0.186,-8.76,-20.08,-14.07
1628921.071350,0.83,-0.323,-0.181,-4.15,-4.43,-7.9
1628921.111501,0.831,-0.316,-0.178,-1.16,-1.86,-3.3
1628921.154426,0.86,-0.335,-0.152,-1.77,0.31,1.77
1628921.200899,0.903,-0.354,-0.179,-0.67,-8.42,0.55
1628921.250431,0.953,-0.372,-0.189,-1.16,-9.61,0.61
1628921.294441,0.929,-0.369,-0.174,-1.43,-2.99,1.65
1628921.340551,0.913,-0.378,-0.183,-1.25,-9.4,-2.93
1628921.380706,0.907,-0.355,-0.19,5.04,-9.49,-5.19
1628921.420987,0.886,-0.333,-0.196,3.02,-2.99,-4.21
1628921.471119,0.879,-0.339,-0.171,-0.58,0.79,0.03
1628921.514789,0.888,-0.375,-0.168,2.62,0.95,3.2
1628921.561419,0.897,-0.39,-0.179,1.95,-10.53,-0.15
1628921.610913,0.917,-0.365,-0.234,-6.01,-14.37,0.61
1628921.661505,0.905,-0.375,-0.233,-17.21,-14.95,-2.72
1628921.710422,0.896,-0.343,-0.296,-8.42,-20.08,-3.6
1628921.750599,0.866,-0.322,-0.31,-12.63,-7.05,-1.95
1628921.791434,0.823,-0.3,-0.274,-8.45,-0.46,3.27
1628921.840658,0.818,-0.342,-0.212,5.98,4.91,7.6
1628921.881011,0.841,-0.355,-0.199,15.75,0.43,11.02
1628921.924363,0.874,-0.389,-0.207,3.63,2.96,9.7
1628921.970816,0.897,-0.409,-0.241,-6.93,-6.26,6.71
1628922.011139,0.905,-0.415,-0.295,-16.79,-6.5,0.85
1628922.054789,0.882,-0.425,-0.306,-22.16,-7.39,-3.2
1628922.100879,0.867,-0.389,-0.313,-5.43,-5.92,-1.83
1628922.150508,0.874,-0.36,-0.298,-2.72,4.64,-2.17
1628922.194591,0.876,-0.353,-0.28,-8.0,3.94,-2.78
1628922.240717,0.874,-0.341,-0.252,-3.78,7.11,-1.28
1628922.290098,0.865,-0.339,-0.246,-2.23,1.68,-0.7
1628922.331373,0.878,-0.347,-0.26,0.61,1.74,0.92
1628922.380516,0.876,-0.359,-0.272,-6.23,0.82,-1.22
1628922.424628,0.894,-0.362,-0.288,-6.1,0.52,-3.14
1628922.471212,0.878,-0.361,-0.277,-2.23,4.3,-1.62
1628922.520372,0.869,-0.35,-0.275,9.09,3.42,-0.49
1628922.567133,0.862,-0.362,-0.265,7.87,5.22,-1.28
1628922.610257,0.836,-0.396,-0.266,2.41,5.01,-1.8
1628922.661005,0.922,-0.362,-0.285,-32.62,16.88,5.25
1628922.711156,1.084,-0.188,-0.209,-39.83,4.12,11.87
1628922.761595,1.318,0.471,-0.169,-21.82,-53.53,38.09
1628922.803066,1.342,0.602,-0.158,-42.39,-136.2,99.46
1628922.844343,1.012,0.443,-0.316,-126.22,-252.17,143.89
1628922.894164,0.692,0.178,-0.549,-201.79,-328.07,212.47
1628922.941185,0.419,0.038,-0.843,-216.71,-270.79,289.01
1628922.990767,-0.118,0.031,-0.771,-218.73,-79.2,326.7
1628923.034399,-0.695,0.211,-0.475,-212.38,42.48,268.17
1628923.074923,-1.411,0.729,-0.633,-147.28,39.16,211.49
1628923.121405,-1.443,0.046,-1.739,-290.84,-5.77,182.29
1628923.164174,-0.418,-1.54,-1.519,117.01,-17.7,138.04
1628923.204416,-0.155,0.448,-1.797,169.13,28.41,-142.95
1628923.250703,-0.177,0.456,-1.353,175.54,84.08,-51.73
1628923.291326,-0.164,-0.469,-1.087,183.26,28.9,-139.44
1628923.334855,-0.223,-0.457,-1.824,336.65,28.66,-143.19
1628923.381373,-0.473,-0.671,-1.141,270.46,105.93,-184.61
1628923.424517,-0.22,-0.814,-0.861,243.63,70.1,-183.9
1628923.471184,0.171,-0.835,-0.565,262.92,44.25,-197.67
1628923.514818,0.426,-0.631,-0.428,236.3,1.71,-200.87
1628923.560912,0.652,-0.351,-0.351,203.22,-11.11,-206.82
1628923.605238,0.692,-0.086,-0.373,166.48,-13.49,-192.14
1628923.650940,0.716,0.315,-0.35,99.64,-39.37,-168.34
1628923.701427,0.869,0.396,-0.535,42.66,-3.66,-98.18
1628923.755180,0.864,0.133,-0.399,17.37,-3.45,-31.89
1628923.804517,0.986,-0.081,-0.46,-30.43,0.82,1.62
1628923.854725,0.906,-0.185,-0.155,-36.81,31.53,10.04
1628923.905043,1.012,-0.234,-0.24,-12.7,-3.51,22.31
1628923.950335,0.932,-0.254,-0.183,-27.71,31.22,1.28
1628923.994249,1.017,-0.294,-0.216,-13.64,10.86,-6.16
1628924.044402,0.878,-0.254,-0.272,-9.06,51.88,-12.79
1628924.090037,0.857,-0.279,-0.242,-26.25,32.38,-8.15
1628924.140092,0.849,-0.185,-0.159,-24.11,19.38,-1.56
1628924.189866,1.034,-0.112,-0.094,-20.17,5.19,10.04
1628924.230210,0.933,-0.091,-0.1,-14.74,20.39,13.49
1628924.271310,0.859,-0.153,-0.13,-42.66,11.32,23.74
1628924.314940,0.882,-0.22,-0.21,-58.23,11.17,37.02
1628924.361610,0.868,-0.266,-0.096,-84.69,22.68,56.83
1628924.410454,0.884,-0.224,-0.051,-37.54,-3.51,79.53
1628924.450638,1.124,-0.19,0.018,-35.98,-23.41,78.62
1628924.500842,1.281,0.099,-0.064,-65.98,-52.25,98.06
1628924.544366,1.452,0.172,-0.06,-140.05,-104.43,107.64
1628924.592711,1.291,0.148,-0.214,-133.03,-166.39,149.88
1628924.640913,0.888,0.206,-0.516,-129.06,-173.89,227.42
1628924.684564,0.478,0.225,-0.675,-239.66,-170.23,285.07
1628924.734247,-0.432,0.341,-0.667,-246.01,-35.77,339.64
1628924.775105,-2.64,0.667,-0.716,-162.94,42.42,344.04
1628924.821333,-1.528,-1.116,-2.352,-413.53,-54.29,248.63
1628924.864340,0.055,-2.838,-1.802,-41.2,36.9,-55.79
1628924.904757,-0.374,0.382,-1.725,137.52,34.55,-134.4
1628924.951072,-0.419,-0.238,-1.263,84.48,40.71,-131.72
1628924.991512,-0.664,-0.717,-1.567,155.4,54.69,-195.38
1628925.040751,-0.861,-0.766,-1.446,214.15,112.31,-245.37
1628925.084741,-0.493,-0.813,-0.909,300.42,83.1,-255.75
1628925.130916,0.034,-0.434,-0.767,287.79,34.0,-279.64
1628925.174422,0.471,0.047,-0.308,242.16,70.22,-268.78
1628925.220812,0.737,0.225,-0.238,173.86,9.16,-211.1
1628925.261793,0.879,0.884,-0.666,134.62,-27.74,-150.79
1628925.314760,1.13,0.288,-0.653,6.44,55.24,-54.87
1628925.361005,0.84,0.082,-0.263,59.18,65.07,-0.55
1628925.415204,0.943,-0.259,-0.297,-29.15,5.65,9.52
1628925.460144,0.874,-0.446,-0.205,-9.43,16.08,10.47
1628925.500331,0.939,-0.433,-0.26,-16.21,-0.31,-7.42
1628925.544602,0.903,-0.39,-0.213,-20.2,35.13,-16.11
1628925.584749,0.898,-0.287,-0.174,-7.84,18.31,-12.79
1628925.634616,0.843,-0.263,-0.368,-55.33,35.77,-8.82
1628925.682571,0.797,-0.309,-0.258,-72.05,24.35,-6.29
1628925.724153,0.957,-0.206,-0.229,-7.48,-2.66,15.84
1628925.764436,1.047,-0.205,-0.263,-11.47,13.76,14.07
1628925.811349,0.958,-0.245,-0.128,-40.74,22.74,9.89
1628925.864568,0.894,-0.297,-0.071,-14.71,19.84,19.9
1628925.904641,0.919,-0.297,0.024,9.89,14.71,14.68
1628925.954969,0.953,-0.331,-0.022,30.98,-2.81,6.65
1628926.001444,0.949,-0.316,-0.037,28.08,-3.23,1.77
1628926.051021,0.869,-0.362,-0.063,28.26,-9.77,1.71
1628926.101147,0.92,-0.434,-0.126,41.9,-21.94,4.73
1628926.151120,0.879,-0.452,-0.14,28.38,-7.32,1.22
1628926.200774,0.85,-0.483,-0.112,25.57,-8.64,6.01
1628926.250835,0.843,-0.454,-0.137,30.79,-20.6,4.67
1628926.300832,0.877,-0.471,-0.174,8.48,-17.15,2.78
1628926.350404,0.871,-0.49,-0.196,-10.22,-11.26,-0.27
1628926.400085,0.851,-0.511,-0.203,-2.38,-5.71,-0.76
1628926.441028,0.856,-0.473,-0.216,-2.47,-1.37,-5.13
1628926.490480,0.882,-0.401,-0.183,2.47,1.13,-1.53
1628926.534786,0.888,-0.369,-0.19,-4.27,5.43,-3.66
1628926.581118,0.895,-0.349,-0.172,-16.21,8.94,-1.83
1628926.631496,0.872,-0.366,-0.159,-19.2,15.44,1.43
1628926.681584,0.874,-0.412,-0.149,-14.47,12.09,4.73
1628926.731403,0.913,-0.44,-0.151,-11.44,9.86,4.7
1628926.781079,0.9,-0.419,-0.13,-15.72,10.38,-1.22
1628926.821414,0.899,-0.394,-0.117,-9.43,6.07,-2.44
1628926.864433,0.906,-0.372,-0.105,-5.55,5.8,-3.14
1628926.911875,0.895,-0.356,-0.115,-5.55,4.09,-1.77
1628926.960806,0.888,-0.394,-0.136,-3.33,3.39,-1.74
1628927.001336,0.894,-0.383,-0.147,0.79,2.72,-3.48
1628927.050566,0.897,-0.36,-0.146,-0.34,6.01,0.06
1628927.095064,0.888,-0.374,-0.131,-5.22,8.67,-0.31
1628927.141087,0.891,-0.38,-0.115,-4.85,8.09,-2.26
1628927.190420,0.899,-0.384,-0.093,-1.77,7.6,-2.5
1628927.231495,0.913,-0.385,-0.094,-1.25,3.69,-2.9
1628927.280680,0.915,-0.365,-0.12,-1.22,1.62,-3.11
1628927.329931,0.91,-0.351,-0.136,-1.25,1.28,-1.1
1628927.370809,0.904,-0.356,-0.115,-0.52,1.68,0.37
1628927.420067,0.887,-0.35,-0.103,-1.8,2.32,3.05
1628927.464337,0.903,-0.383,-0.078,0.18,1.86,4.27
1628927.510571,0.903,-0.381,-0.078,3.27,0.24,1.68
1628927.560713,0.902,-0.364,-0.081,4.3,-2.99,0.67
1628927.601226,0.92,-0.334,-0.122,0.98,-1.65,0.18
1628927.650761,0.978,-0.184,-0.213,-24.45,0.43,0.92
1628927.701011,1.168,0.09,-0.473,-139.96,103.98,10.28
1628927.744337,1.064,0.089,-0.237,-296.18,198.34,-26.37
1628927.791049,1.043,-0.027,-0.074,-396.28,273.35,-79.13
1628927.834355,0.916,-0.052,0.438,-363.11,219.64,-138.25
1628927.881474,0.669,0.102,0.693,-162.02,103.06,-84.26
1628927.924394,0.676,0.087,0.54,-139.16,-68.64,-33.3
1628927.970977,0.793,-0.013,-0.104,-175.36,-151.65,-48.86
1628928.014383,0.7,-0.084,-0.389,-142.06,-115.12,-48.43
1628928.061577,0.59,0.058,-0.847,-170.72,-166.57,-91.74
1628928.104671,0.748,0.24,-1.264,-195.44,-173.83,-98.36
1628928.150896,0.711,0.092,-1.037,-142.7,-108.13,36.53
1628928.191023,1.281,-0.44,-0.827,-56.06,-70.53,135.62
1628928.231257,1.256,-0.34,-0.721,17.76,-13.28,37.93
1628928.271361,0.881,0.174,-0.51,18.83,22.68,-24.6
1628928.311518,0.853,0.223,-0.432,-0.58,-19.07,2.17
1628928.361147,0.972,0.116,-0.517,5.68,-9.16,26.25
1628928.411007,0.945,0.022,-0.521,-2.87,3.75,14.13
1628928.454232,0.917,-0.039,-0.509,-1.1,10.65,13.09
1628928.501565,0.965,0.008,-0.491,4.24,15.35,-12.82
1628928.555139,0.887,0.097,-0.43,8.0,21.06,-12.02
1628928.601376,0.797,0.108,-0.375,2.81,18.68,2.47
1628928.650720,0.839,0.05,-0.395,-3.02,5.55,9.52
1628928.700421,0.892,0.021,-0.411,-0.31,8.03,0.55
1628928.741271,0.858,0.045,-0.386,4.18,8.36,-1.65
1628928.790541,0.852,0.05,-0.375,2.93,4.27,-1.13
1628928.834528,0.86,0.051,-0.362,6.56,1.31,1.19
1628928.880835,0.829,0.032,-0.352,3.33,-0.21,9.43
1628928.930350,0.862,-0.007,-0.371,2.41,-4.12,11.05
1628928.974545,0.895,-0.025,-0.405,4.67,-2.87,3.54
1628929.020872,0.898,0.003,-0.417,7.9,1.13,-3.08
1628929.070218,0.913,0.021,-0.41,11.38,-1.19,0.27
1628929.120179,0.874,0.019,-0.401,12.15,5.16,4.12
1628929.165119,0.892,0.014,-0.393,12.18,-0.34,3.6
1628929.211560,0.846,0.006,-0.405,13.21,3.69,7.35
1628929.261214,0.856,-0.055,-0.41,25.15,0.34,14.19
1628929.314291,0.878,-0.125,-0.411,46.11,11.47,21.79
1628929.354526,0.866,-0.069,-0.385,60.82,21.12,13.52
1628929.404685,0.853,0.014,-0.36,31.92,6.2,-20.66
1628929.454741,0.997,0.142,-0.333,-16.17,-15.93,-49.84
1628929.495258,0.948,0.142,-0.321,-18.83,-30.24,-33.3
1628929.540613,0.87,0.043,-0.427,-18.8,-30.85,11.57
1628929.590689,0.812,-0.207,-0.431,-17.98,-17.76,24.78
1628929.640828,0.925,-0.424,-0.502,40.96,5.25,24.72
1628929.680997,0.908,-0.267,-0.718,102.21,57.22,-14.62
1628929.721192,0.647,-0.066,-0.403,75.87,65.34,-65.58
1628929.771335,0.814,0.166,-0.202,45.38,25.18,-52.19
1628929.811670,0.94,0.169,-0.138,21.39,6.5,-30.79
1628929.861560,1.001,0.172,-0.231,-3.23,-20.84,-7.26
1628929.911391,1.018,0.064,-0.363,-11.87,-25.57,18.59
1628929.964339,0.925,0.025,-0.365,-26.55,-25.88,3.17
1628930.014716,0.947,-0.018,-0.43,-28.53,-28.53,-0.27
1628930.062146,0.855,0.06,-0.448,-36.13,-20.02,-24.81
1628930.104758,0.859,0.075,-0.464,-26.8,-26.12,5.98
1628930.150733,0.836,0.029,-0.481,-24.87,-16.24,19.41
1628930.200792,0.88,-0.022,-0.491,-17.15,-18.01,22.77
1628930.240859,0.868,-0.029,-0.511,-13.92,-14.22,15.08
1628930.290789,0.867,-0.034,-0.487,-8.3,-9.86,10.5
1628930.340859,0.864,-0.004,-0.501,-9.25,-14.04,8.91
1628930.390066,0.849,0.013,-0.442,-7.02,-10.28,9.8
1628930.434841,0.874,0.047,-0.444,-18.86,-34.36,8.09
1628930.477099,0.901,0.033,-0.532,-25.18,-36.96,16.33
1628930.520579,0.863,-0.021,-0.569,-28.38,-26.73,15.78
1628930.561483,0.841,-0.082,-0.649,-4.82,-7.63,23.93
1628930.605004,0.814,-0.108,-0.663,17.82,10.07,30.15
1628930.650674,0.758,-0.135,-0.67,36.29,37.42,12.57
1628930.700822,0.747,-0.093,-0.704,64.27,60.49,-6.32
1628930.750643,0.762,-0.028,-0.798,68.3,70.07,-41.08
1628930.790901,0.731,0.022,-0.646,79.62,94.45,-13.58
1628930.841050,0.817,-0.14,-0.804,56.49,66.87,-5.22
1628930.891095,0.731,-0.279,-0.921,64.3,88.53,6.2
1628930.931854,0.767,-0.221,-0.614,90.67,76.78,17.03
1628930.981755,0.741,0.034,-0.325,54.93,107.94,-21.73
1628931.034781,0.773,-0.008,0.136,46.94,74.04,0.82
1628931.074900,0.857,0.038,0.071,17.43,35.92,-20.08
1628931.119946,0.887,0.083,0.263,-9.34,56.92,-1.8
1628931.164646,0.859,-0.064,0.447,-16.54,29.48,55.06
1628931.211310,1.1,-0.087,0.294,-60.95,-4.67,47.03
1628931.254399,0.954,-0.299,0.393,-87.31,4.82,71.11
1628931.294847,1.025,-0.476,0.329,-44.68,4.15,126.56
1628931.339764,0.911,-0.467,0.362,-61.25,41.2,65.89
1628931.379782,0.927,-0.454,0.298,-44.83,36.16,34.0
1628931.430204,0.921,-0.437,0.296,-38.7,40.47,-2.62
1628931.480651,0.839,-0.477,0.312,-14.01,29.82,18.13
1628931.530929,0.829,-0.494,0.236,-9.09,9.31,4.03
1628931.574781,0.85,-0.537,0.163,3.57,-4.79,6.59
1628931.621519,0.835,-0.493,0.155,8.24,-6.71,4.97
1628931.670998,0.897,-0.454,0.093,10.71,-11.38,4.24
1628931.711243,0.897,-0.451,0.066,5.92,-5.65,-0.06
1628931.761225,0.864,-0.492,0.107,8.85,0.31,7.14
1628931.810742,0.836,-0.498,0.093,10.28,-2.87,5.89
1628931.860376,0.854,-0.503,0.093,11.29,-13.58,5.19
1628931.901589,0.881,-0.426,0.046,8.33,-10.74,-0.73
1628931.955412,0.854,-0.427,0.086,2.14,-4.55,3.23
1628932.000859,0.861,-0.535,0.072,3.94,-6.41,8.03
1628932.049746,0.838,-0.496,0.077,2.32,-4.46,-3.6
1628932.091340,0.803,-0.438,0.1,-2.78,-6.44,-0.58
1628932.141007,0.863,-0.466,0.035,-10.35,-15.29,-0.49
1628932.191013,0.917,-0.502,-0.001,-10.1,-8.33,-4.0
1628932.240313,0.914,-0.528,0.026,-1.37,7.45,9.64
1628932.284975,0.872,-0.52,0.076,0.24,9.98,3.85
1628932.331062,0.828,-0.463,0.073,0.0,0.7,-2.99
1628932.379856,0.839,-0.466,0.07,-7.11,-5.52,-3.88
1628932.421036,0.865,-0.494,0.038,-8.76,-7.17,-4.91
1628932.461193,0.865,-0.496,0.041,-1.16,-1.53,2.23
1628932.501465,0.87,-0.502,0.041,-1.86,-1.53,4.43
1628932.550742,0.862,-0.5,0.042,-0.76,-0.82,0.95
1628932.595114,0.857,-0.493,0.049,2.66,1.59,2.41
1628932.641092,0.872,-0.488,0.031,1.34,-0.4,-1.43
1628932.690395,0.855,-0.485,0.04,0.52,1.83,1.01
1628932.731815,0.857,-0.506,0.031,1.65,1.92,2.32
1628932.780829,0.839,-0.471,0.057,0.34,-1.07,5.19
1628932.830268,0.868,-0.499,0.051,0.03,-1.22,5.1
1628932.871523,0.857,-0.492,0.056,0.67,3.27,0.4
1628932.920418,0.837,-0.486,0.065,3.14,-0.98,3.57
1628932.964699,0.844,-0.501,0.036,-0.89,-6.99,2.04
1628933.010982,0.85,-0.51,0.047,1.16,-0.06,-1.46
1628933.060919,0.85,-0.497,0.043,1.22,-0.06,0.24
1628933.101408,0.855,-0.503,0.041,4.61,1.68,-0.34
1628933.150698,0.853,-0.496,0.055,4.46,-0.82,-0.89
1628933.194683,0.854,-0.495,0.04,0.06,-0.85,0.4
1628933.240950,0.853,-0.496,0.039,-3.17,-0.55,0.15
1628933.290341,0.863,-0.506,0.04,0.98,-1.62,2.11
1628933.331690,0.862,-0.505,0.068,0.61,-3.17,-0.43
1628933.380951,0.887,-0.515,0.033,2.9,-3.6,-2.01
1628933.421048,0.877,-0.508,0.04,5.68,0.61,-5.22
1628933.471292,0.834,-0.475,0.066,6.13,0.79,-2.93
1628933.511300,0.824,-0.481,0.062,2.53,-0.31,-1.22
1628933.551422,0.829,-0.502,0.064,2.53,-0.73,-0.31
1628933.600326,0.839,-0.509,0.058,4.06,-6.01,-0.58
1628933.644545,0.857,-0.498,0.054,3.6,-2.17,-1.86
1628933.690984,0.865,-0.484,0.051,5.04,-0.67,-0.43
1628933.740389,0.864,-0.484,0.034,5.98,-2.29,-0.67
1628933.781684,0.86,-0.477,0.026,1.95,0.43,-1.4
1628933.830525,0.845,-0.46,0.047,-1.86,0.27,1.22
1628933.874714,0.85,-0.485,0.045,-3.36,-1.22,1.37
1628933.921055,0.855,-0.509,0.038,-2.44,-1.01,3.2
1628933.971305,0.856,-0.495,0.046,-1.28,0.61,0.18
1628934.014440,0.863,-0.494,0.031,-0.98,1.62,0.27
1628934.061366,0.86,-0.481,0.035,-3.51,1.8,0.0
1628934.109705,0.857,-0.487,0.034,-5.07,1.92,1.04
1628934.151365,0.847,-0.488,0.051,-2.99,2.66,2.81
1628934.200515,0.859,-0.504,0.043,-5.55,0.64,1.22
1628934.244863,0.863,-0.509,0.044,-2.35,1.19,1.16
1628934.290717,0.857,-0.498,0.057,-2.35,2.41,1.1
1628934.339982,0.848,-0.499,0.054,-0.61,0.89,1.83
1628934.381199,0.847,-0.494,0.056,-1.5,-0.95,0.64
1628934.421503,0.855,-0.494,0.041,-1.37,-2.53,0.85
1628934.474901,0.853,-0.491,0.046,0.98,-1.71,1.22
1628934.521233,0.845,-0.506,0.043,-0.82,-4.43,1.34
1628934.571178,0.861,-0.507,0.032,0.24,-2.9,0.82
1628934.624414,0.871,-0.51,0.022,2.5,0.18,-0.37
1628934.670644,0.865,-0.515,0.015,3.3,1.59,-0.76
1628934.720066,0.87,-0.508,0.019,5.22,6.35,-4.27
1628934.761280,0.842,-0.47,0.05,4.52,6.38,-4.55
1628934.810492,0.829,-0.45,0.072,-2.14,0.7,-0.31
1628934.860280,0.84,-0.473,0.05,-5.89,-3.17,1.74
1628934.901236,0.858,-0.506,0.039,-4.27,-2.53,1.19
1628934.950476,0.865,-0.526,0.026,-3.02,-0.09,1.4
1628934.994609,0.85,-0.507,0.037,-1.86,1.1,1.53
1628935.040875,0.859,-0.495,0.033,-1.65,0.89,-0.24
1628935.089884,0.864,-0.491,0.042,-2.44,1.04,-0.52
1628935.131482,0.857,-0.5,0.045,-1.98,0.98,0.58
1628935.180641,0.855,-0.509,0.042,0.18,2.08,-0.92
1628935.224605,0.843,-0.501,0.052,0.09,1.04,-1.25
1628935.271356,0.845,-0.498,0.047,1.46,1.59,-0.58
1628935.320920,0.842,-0.501,0.049,1.43,-0.03,1.19
1628935.361131,0.853,-0.503,0.049,2.56,-0.4,0.85
1628935.410316,0.861,-0.492,0.041,0.95,-0.82,-0.52
1628935.454540,0.87,-0.498,0.033,-0.15,-2.08,-0.15
1628935.500747,0.869,-0.505,0.038,0.55,1.16,-1.95
1628935.550024,0.86,-0.5,0.049,1.46,2.81,-1.86
1628935.591243,0.853,-0.49,0.048,1.71,2.96,-2.56
1628935.640492,0.86,-0.489,0.037,1.4,3.6,-3.33
1628935.689731,0.857,-0.479,0.039,1.22,5.46,-2.81
1628935.731085,0.855,-0.473,0.049,-0.89,3.2,-3.75
1628935.782996,0.86,-0.476,0.061,-3.69,2.2,-3.11
1628935.824231,0.87,-0.48,0.053,-2.75,2.17,-3.66
1628935.870633,0.865,-0.486,0.061,-2.2,4.27,-3.36
1628935.919778,0.862,-0.482,0.066,1.19,2.99,-4.43
1628935.960991,0.857,-0.46,0.059,2.2,0.06,-7.17
1628936.010355,0.876,-0.459,0.055,-1.43,-1.92,-5.49
1628936.054355,0.877,-0.473,0.061,-1.53,-0.15,-4.43
1628936.100623,0.879,-0.466,0.054,0.61,1.04,-4.43
1628936.150000,0.874,-0.458,0.063,-1.86,1.83,-4.76
1628936.191143,0.862,-0.452,0.056,-0.79,2.23,-1.83
1628936.240352,0.864,-0.45,0.065,-2.84,2.04,-3.69
1628936.284549,0.865,-0.452,0.067,-3.51,0.18,-1.31
1628936.331019,0.887,-0.451,0.055,-4.55,1.1,-2.56
1628936.380085,0.888,-0.445,0.058,-3.23,1.46,-1.28
1628936.421249,0.89,-0.456,0.047,-4.39,1.19,-1.89
1628936.470521,0.875,-0.437,0.065,-4.46,3.11,-1.65
1628936.510707,0.874,-0.442,0.065,-3.63,2.84,-0.7
1628936.552920,0.879,-0.449,0.066,-3.85,3.39,-0.09
1628936.606288,0.881,-0.451,0.071,-2.75,3.63,-0.52
1628936.654402,0.886,-0.46,0.066,0.27,3.78,-0.7
1628936.700589,0.899,-0.466,0.073,3.11,7.66,-3.66
1628936.750183,0.9,-0.456,0.079,7.11,13.55,-5.71
1628936.799960,0.874,-0.429,0.104,10.35,17.79,-4.21
1628936.850033,0.84,-0.414,0.183,12.76,19.17,0.61
1628936.900277,0.841,-0.484,0.295,27.8,23.74,10.9
1628936.950717,0.847,-0.469,0.457,40.35,22.22,4.03
1628937.000745,0.817,-0.377,0.671,67.29,15.05,-5.13
1628937.050773,0.791,-0.277,0.757,101.44,0.64,4.27
1628937.100907,0.832,-0.09,0.867,92.47,-21.03,-15.11
1628937.140989,0.99,-0.098,0.805,48.4,-48.77,-37.42
1628937.181306,0.95,-0.334,0.632,44.8,-53.38,27.77
1628937.221526,0.975,-0.577,0.33,-5.58,-87.16,4.21
1628937.271750,0.815,-0.416,0.094,-65.28,-71.05,-113.59
1628937.314524,0.762,-0.239,-0.148,-64.91,-101.11,-100.89
1628937.360848,0.631,-0.093,-0.451,-74.28,-111.97,-76.08
1628937.401301,0.532,0.012,-0.649,-103.95,-148.23,-50.9
1628937.444405,0.551,0.081,-0.919,-113.62,-156.13,-36.26
1628937.491169,0.667,0.124,-0.987,-125.19,-113.62,10.07
1628937.531449,0.673,-0.103,-0.84,-79.81,-77.76,92.84
1628937.571506,1.049,-0.332,-0.715,-45.2,-46.54,34.49
1628937.620851,0.909,-0.019,-0.667,-2.23,4.55,-9.03
1628937.670224,0.797,0.065,-0.555,-3.02,-0.24,9.31
1628937.711373,0.906,0.016,-0.575,-8.73,-5.07,-1.89
1628937.760967,0.878,-0.066,-0.512,-1.25,3.78,10.8
1628937.810270,0.84,-0.044,-0.511,2.14,10.59,-7.29
1628937.854992,0.829,-0.001,-0.48,-0.73,6.62,-8.94
1628937.901061,0.819,-0.032,-0.482,-0.7,3.48,2.62
1628937.950357,0.845,-0.066,-0.465,3.17,3.94,10.5
1628937.994858,0.814,-0.045,-0.46,-0.31,2.93,-5.86
1628938.040918,0.832,-0.021,-0.478,-1.65,0.7,0.61
1628938.090393,0.825,-0.058,-0.48,-0.92,-1.86,6.47
1628938.131472,0.835,-0.076,-0.496,0.09,-2.32,2.99
1628938.180311,0.831,-0.045,-0.492,0.58,-3.69,-1.31
1628938.224662,0.845,-0.052,-0.485,1.53,-4.43,1.65
1628938.270992,0.877,-0.051,-0.504,0.85,-1.43,0.98
1628938.321394,0.862,-0.023,-0.496,2.96,0.58,-2.14
1628938.374818,0.864,-0.019,-0.504,0.79,-1.07,0.43
1628938.421975,0.87,-0.031,-0.51,-0.24,1.16,1.5
1628938.470683,0.863,-0.037,-0.5,2.41,1.22,4.82
1628938.511644,0.847,-0.046,-0.49,-0.7,-0.15,1.95
1628938.560666,0.838,-0.056,-0.487,-0.31,3.23,-1.16
1628938.609714,0.828,-0.061,-0.498,-0.82,2.41,-0.95
1628938.650942,0.819,-0.044,-0.504,1.01,3.02,-1.5
1628938.700201,0.835,-0.037,-0.511,-0.09,-0.09,-1.28
1628938.741447,0.868,-0.028,-0.528,0.24,0.15,0.89
1628938.790523,0.86,-0.039,-0.492,-0.46,0.79,1.1
1628938.840177,0.854,-0.034,-0.487,-2.47,3.54,-1.01
1628938.881356,0.84,-0.048,-0.473,-1.13,0.89,0.12
1628938.930523,0.834,-0.052,-0.485,-2.23,0.55,0.18
1628938.974535,0.824,-0.061,-0.467,-1.71,1.4,-0.49
1628939.020650,0.827,-0.047,-0.467,-2.9,-1.46,-2.41
1628939.070117,0.834,-0.035,-0.48,-1.5,-1.16,1.07
1628939.111224,0.834,-0.05,-0.486,-0.61,-3.66,1.62
1628939.160956,0.854,-0.037,-0.509,-2.69,-3.36,-2.78
1628939.205089,0.86,-0.043,-0.52,-0.89,-2.47,0.58
1628939.251243,0.849,-0.037,-0.506,0.4,2.2,-2.62
1628939.300177,0.835,-0.028,-0.494,-1.13,0.09,-1.53
1628939.341537,0.84,-0.022,-0.505,-2.38,-2.08,-1.56
1628939.390587,0.849,-0.031,-0.507,-2.41,-1.16,-1.62
1628939.440138,0.855,-0.03,-0.5,-0.7,1.43,-0.37
1628939.481215,0.845,-0.02,-0.508,-1.13,-0.12,0.27
1628939.530435,0.842,-0.031,-0.501,-1.16,1.71,1.31
1628939.574845,0.836,-0.028,-0.508,1.07,0.43,4.39
1628939.621239,0.819,-0.042,-0.488,-0.64,-0.03,4.76
1628939.661357,0.833,-0.034,-0.484,-1.25,-0.49,1.46
1628939.711204,0.839,-0.037,-0.498,-2.84,-2.44,0.67
1628939.761002,0.844,-0.051,-0.491,-1.37,-0.03,2.47
1628939.806434,0.833,-0.043,-0.493,-0.67,-1.92,3.88
1628939.851144,0.84,-0.052,-0.5,-1.4,-0.34,3.69
1628939.900699,0.838,-0.052,-0.504,1.22,-0.34,6.35
1628939.941281,0.835,-0.053,-0.506,-0.73,-1.8,1.53
1628939.990630,0.837,-0.05,-0.496,-1.16,-3.02,-0.92
1628940.035460,0.848,-0.047,-0.52,-1.89,-1.4,-0.79
1628940.081086,0.841,-0.041,-0.51,-1.13,-0.06,-0.03
1628940.122767,0.846,-0.042,-0.517,-1.07,1.83,0.34
1628940.171374,0.841,-0.046,-0.511,-1.62,1.13,-1.5
1628940.220932,0.849,-0.041,-0.511,-1.65,1.1,0.21
1628940.261525,0.836,-0.045,-0.509,-1.19,0.18,0.98
1628940.311100,0.835,-0.04,-0.505,-2.11,1.04,-0.24
1628940.360510,0.837,-0.046,-0.512,-1.34,0.06,1.74
1628940.404664,0.834,-0.049,-0.509,-1.31,1.16,1.16
1628940.450714,0.82,-0.041,-0.496,-0.34,0.79,1.8
1628940.500332,0.83,-0.048,-0.506,-0.73,-0.15,1.01
1628940.541473,0.824,-0.041,-0.503,-0.46,-0.34,0.58
1628940.590746,0.827,-0.046,-0.509,-0.31,-1.71,2.75
1628940.635155,0.823,-0.049,-0.499,2.08,-0.61,2.66
1628940.681101,0.818,-0.047,-0.504,0.85,-2.47,5.22
1628940.731097,0.839,-0.053,-0.513,-1.65,-3.88,2.17
1628940.771557,0.85,-0.055,-0.523,-1.65,-3.05,1.1
1628940.821350,0.852,-0.063,-0.528,-1.8,-2.08,0.24
1628940.870012,0.855,-0.063,-0.531,-0.95,-0.79,0.76
1628940.911124,0.848,-0.065,-0.526,-0.64,1.31,0.64
1628940.960267,0.83,-0.056,-0.525,-0.43,0.79,-0.58
1628941.004351,0.824,-0.057,-0.517,-1.04,2.2,-0.67
1628941.050703,0.811,-0.056,-0.515,-0.79,1.4,-0.85
1628941.099950,0.814,-0.056,-0.511,-0.21,-0.4,0.46
1628941.141184,0.81,-0.077,-0.508,4.91,2.29,5.52
1628941.191394,0.871,-0.143,-0.552,23.13,4.73,20.05
1628941.244451,0.87,-0.309,-0.611,89.97,27.8,69.61
1628941.285131,0.732,-0.444,-0.692,172.52,38.36,139.07
1628941.331768,0.598,-0.581,-0.649,231.15,1.34,124.85
1628941.374950,0.544,-0.65,-0.622,265.69,-49.35,106.48
1628941.421272,0.484,-0.803,-0.515,278.45,-75.11,92.9
1628941.461756,0.528,-0.917,-0.304,265.57,-57.07,117.34
1628941.505175,0.589,-0.99,-0.095,254.55,-103.15,116.4
1628941.555124,0.637,-0.912,-0.062,238.35,-107.94,76.2
1628941.600973,0.6,-0.792,0.218,182.07,-95.16,30.4
1628941.641381,0.661,-0.749,0.208,149.78,-137.39,9.4
1628941.681885,0.691,-0.689,0.03,97.35,-135.59,-10.25
1628941.724662,0.562,-0.631,0.238,40.71,-79.74,-10.62
1628941.774966,0.582,-0.643,0.237,26.4,-128.76,1.98
1628941.814979,0.714,-0.656,0.085,3.85,-70.41,-20.78
1628941.860551,0.69,-0.745,0.24,-40.62,-36.16,-37.84
1628941.900931,0.708,-0.617,0.161,-34.18,-32.99,-59.57
1628941.941953,0.707,-0.549,0.137,-39.55,-19.68,-56.31
1628941.990628,0.705,-0.517,0.119,-54.66,3.36,-45.5
1628942.040755,0.71,-0.517,0.053,-62.38,-1.19,-39.31
1628942.080949,0.782,-0.573,0.04,-71.47,-2.44,-31.86
1628942.130811,0.833,-0.574,0.032,-39.52,1.07,-23.32
1628942.181098,0.881,-0.532,-0.009,-19.47,-15.9,-12.63
1628942.230807,0.868,-0.556,0.01,0.34,-2.01,5.74
1628942.274878,0.833,-0.545,-0.0,3.27,-12.18,3.88
1628942.321568,0.81,-0.583,0.007,17.43,2.35,7.84
1628942.371570,0.78,-0.608,0.009,2.66,-1.07,1.13
1628942.420108,0.772,-0.643,0.016,3.51,0.06,-4.97
1628942.461170,0.784,-0.637,-0.003,5.34,-4.88,-6.81
1628942.510458,0.783,-0.609,-0.01,-9.58,-3.33,-10.99
1628942.561153,0.778,-0.588,-0.018,-0.34,-9.8,-4.61
1628942.601572,0.799,-0.602,-0.034,8.03,-5.04,-0.73
1628942.650887,0.782,-0.6,-0.024,8.85,-3.75,2.08
1628942.700317,0.781,-0.601,-0.016,8.3,-3.6,1.74
1628942.741482,0.785,-0.599,-0.006,0.98,-3.54,-0.24
1628942.790711,0.785,-0.594,-0.012,-0.18,-8.64,-1.07
1628942.835152,0.792,-0.603,-0.025,-1.92,-4.27,-3.51
1628942.881028,0.788,-0.617,-0.022,2.87,-3.69,-1.31
1628942.930499,0.784,-0.595,-0.04,-1.1,-4.21,-2.84
1628942.971754,0.779,-0.598,-0.027,-2.81,-0.98,-2.5
1628943.021199,0.782,-0.596,-0.022,-1.34,-2.59,-1.1
1628943.065100,0.784,-0.593,-0.034,-3.94,-2.96,-1.25
1628943.111072,0.795,-0.608,-0.038,-5.13,-3.45,-2.23
1628943.161349,0.793,-0.591,-0.042,-2.66,-1.89,-3.02
1628943.201733,0.796,-0.583,-0.048,-3.17,-0.52,-2.87
1628943.250974,0.798,-0.59,-0.031,-4.43,-1.43,-2.78
1628943.300221,0.798,-0.594,-0.04,-3.6,-1.71,-1.68
1628943.341436,0.794,-0.592,-0.055,-4.46,-1.98,-4.97
1628943.388120,0.797,-0.574,-0.066,-5.1,-1.53,-5.55
1628943.434582,0.8,-0.573,-0.057,-0.52,1.98,-0.55
1628943.481178,0.803,-0.558,-0.054,-1.68,1.74,-2.26
1628943.521243,0.812,-0.572,-0.046,-2.44,3.45,-0.76
1628943.571515,0.808,-0.569,-0.056,-3.75,1.31,-1.95
1628943.620849,0.801,-0.563,-0.047,-0.7,4.49,-1.68
1628943.664880,0.809,-0.559,-0.046,-0.18,3.17,-1.25
1628943.711081,0.813,-0.556,-0.048,-0.15,2.01,-0.21
1628943.760346,0.815,-0.564,-0.031,-0.09,1.25,-0.92
1628943.801551,0.812,-0.543,-0.051,0.03,-0.49,-0.09
1628943.851426,0.802,-0.569,-0.044,-1.31,0.79,0.03
1628943.900139,0.804,-0.566,-0.049,0.46,-1.19,2.38
1628943.941012,0.8,-0.584,-0.045,-0.43,0.15,1.62
1628943.990285,0.806,-0.591,-0.047,0.4,-1.59,-0.18
1628944.034439,0.806,-0.58,-0.051,1.31,-1.98,-1.13
1628944.080722,0.81,-0.563,-0.057,0.46,-0.95,-1.34
1628944.130162,0.799,-0.568,-0.047,0.82,0.27,0.52
1628944.171511,0.795,-0.582,-0.044,-1.04,-0.37,0.55
1628944.220795,0.802,-0.569,-0.057,0.15,-1.5,0.0
1628944.264970,0.812,-0.558,-0.063,-1.28,0.95,1.16
1628944.310960,0.806,-0.569,-0.048,0.12,3.05,3.17
1628944.364374,0.807,-0.573,-0.04,-1.86,1.31,3.17
1628944.414786,0.802,-0.597,-0.029,0.73,0.89,2.87
1628944.460863,0.809,-0.583,-0.048,0.61,-1.25,-0.15
1628944.510363,0.81,-0.56,-0.056,1.16,1.13,0.79
1628944.551333,0.801,-0.571,-0.042,0.15,1.74,1.1
1628944.600818,0.8,-0.578,-0.04,-0.18,-0.46,1.65
1628944.644947,0.803,-0.581,-0.043,-0.64,-1.37,0.64
1628944.691104,0.803,-0.576,-0.048,0.31,-1.53,0.85
1628944.740107,0.796,-0.581,-0.038,0.64,-2.01,0.34
1628944.781463,0.8,-0.566,-0.054,-0.61,-2.9,0.21
1628944.830809,0.797,-0.579,-0.062,0.12,-0.76,1.34
1628944.879888,0.792,-0.594,-0.044,0.55,-0.18,1.19
1628944.920967,0.795,-0.589,-0.046,0.12,-2.26,0.61
1628944.971401,0.795,-0.586,-0.058,-0.67,-2.23,-0.18
1628945.014661,0.794,-0.586,-0.063,0.15,-1.22,0.18
1628945.060801,0.796,-0.579,-0.061,0.52,-0.09,-0.03
1628945.110290,0.797,-0.576,-0.052,1.65,0.82,0.85
1628945.151550,0.796,-0.587,-0.051,1.95,0.95,0.89
1628945.200610,0.797,-0.591,-0.047,2.2,0.24,-0.67
1628945.244956,0.808,-0.56,-0.063,2.81,-0.46,-0.15
1628945.291173,0.784,-0.58,-0.079,4.03,3.17,3.17
1628945.340248,0.773,-0.544,-0.072,5.25,2.04,1.19
1628945.381677,0.837,-0.516,-0.062,8.21,3.94,8.3
1628945.431865,0.858,-0.603,-0.004,-1.19,10.13,11.72
1628945.481646,0.743,-0.754,0.045,-5.25,10.1,5.43
1628945.530705,0.698,-0.684,0.007,-2.2,-6.41,-11.63
1628945.571038,0.726,-0.539,-0.071,2.87,-11.2,-13.18
1628945.611456,0.799,-0.437,-0.107,4.06,-8.21,-5.37
1628945.660901,0.866,-0.505,-0.089,-2.41,9.28,13.06
1628945.701725,0.834,-0.627,-0.023,-7.05,13.7,15.84
1628945.751007,0.774,-0.735,0.035,-2.56,13.09,9.58
1628945.800111,0.74,-0.666,0.028,2.01,-1.89,-6.84
1628945.841113,0.753,-0.584,-0.01,2.96,-5.55,-8.7
1628945.890293,0.785,-0.543,-0.047,0.73,-4.52,-2.72
1628945.934865,0.803,-0.57,-0.053,-3.02,-0.43,3.45
1628945.981227,0.794,-0.617,-0.021,-2.66,2.08,4.43
1628946.030526,0.78,-0.639,-0.001,-0.55,1.37,2.32
1628946.071705,0.773,-0.638,0.003,0.21,-0.37,-1.04
1628946.121484,0.784,-0.616,-0.017,1.74,-2.44,-3.33
1628946.166568,0.784,-0.594,-0.031,2.78,-1.92,-2.72
1628946.210920,0.782,-0.592,-0.029,0.46,-0.79,-0.73
1628946.252981,0.774,-0.608,-0.011,-0.31,-1.1,0.12
1628946.301698,0.774,-0.611,-0.012,-0.79,-1.4,-0.55
1628946.350988,0.788,-0.61,-0.026,0.76,-3.23,0.4
1628946.400201,0.792,-0.602,-0.035,1.1,-1.59,-0.31
1628946.441354,0.791,-0.6,-0.035,2.01,0.27,0.52
1628946.490642,0.785,-0.599,-0.026,-0.73,-1.37,0.27
1628946.531888,0.789,-0.601,-0.035,-3.14,-2.01,-0.15
1628946.581213,0.778,-0.614,-0.033,-2.2,-1.89,-0.37
1628946.630629,0.785,-0.603,-0.038,-3.51,-1.01,-1.71
1628946.671594,0.789,-0.592,-0.044,-2.96,-1.71,-1.22
1628946.721372,0.784,-0.594,-0.045,-2.35,-0.49,-0.09
1628946.764615,0.779,-0.604,-0.04,-1.28,-0.55,0.67
1628946.811595,0.78,-0.604,-0.053,-1.68,-0.79,-0.58
1628946.860299,0.788,-0.593,-0.063,-1.77,0.52,-0.34
1628946.901623,0.787,-0.596,-0.044,-1.31,2.23,0.82
1628946.945787,0.788,-0.606,-0.04,-0.37,1.89,1.19
1628946.994983,0.783,-0.611,-0.046,-2.38,0.55,-1.04
1628947.041141,0.788,-0.597,-0.058,-5.01,0.82,-3.05
1628947.090593,0.791,-0.588,-0.055,-2.72,1.62,-0.82
1628947.131610,0.784,-0.595,-0.044,-0.98,1.83,1.04
1628947.181040,0.788,-0.599,-0.05,-3.36,1.1,-0.18
1628947.221128,0.788,-0.595,-0.056,-2.59,1.92,0.0
1628947.271303,0.786,-0.599,-0.047,-2.41,2.56,-0.24
1628947.320224,0.787,-0.598,-0.047,-2.29,2.75,-0.95
1628947.364893,0.792,-0.595,-0.045,-1.83,1.86,-0.49
1628947.410825,0.785,-0.597,-0.04,-1.25,2.04,-0.64
1628947.460355,0.789,-0.587,-0.047,-2.56,1.4,-0.34
1628947.501609,0.79,-0.586,-0.042,-1.46,1.56,0.55
1628947.550796,0.79,-0.598,-0.042,-2.47,1.22,0.82
1628947.594937,0.79,-0.603,-0.046,-1.8,0.73,0.12
1628947.641180,0.794,-0.592,-0.053,-1.28,0.61,0.85
1628947.690461,0.792,-0.594,-0.046,-1.4,0.24,1.19
1628947.731668,0.784,-0.592,-0.048,-2.53,1.01,1.28
1628947.780573,0.779,-0.601,-0.047,-1.95,1.5,2.04
1628947.824697,0.777,-0.606,-0.055,-2.5,1.59,1.74
1628947.871340,0.781,-0.603,-0.051,-0.95,3.08,1.89
1628947.921034,0.781,-0.595,-0.054,-2.47,4.85,1.8
1628947.961470,0.784,-0.595,-0.054,-2.93,5.68,2.87
1628948.010900,0.78,-0.618,-0.043,-4.85,7.08,4.91
1628948.060464,0.777,-0.645,-0.033,-3.69,4.55,1.86
1628948.101560,0.786,-0.63,-0.038,-2.62,2.38,-0.06
1628948.150593,0.78,-0.629,-0.044,-0.18,2.78,-1.53
1628948.194792,0.751,-0.621,-0.035,2.35,-0.89,-2.72
1628948.241105,0.758,-0.616,-0.01,7.08,-2.81,-2.44
1628948.290420,0.752,-0.631,0.016,8.94,-4.21,9.06
1628948.342928,0.798,-0.588,-0.019,-3.27,-7.11,13.37
1628948.384601,0.939,-0.53,-0.052,-8.09,-15.11,44.22
1628948.434759,1.061,-0.441,-0.097,-3.75,-24.41,66.26
1628948.480403,1.15,-0.587,-0.268,-38.42,-26.95,49.84
1628948.521462,0.932,-0.539,-0.086,-15.84,-16.45,20.69
1628948.571030,0.716,-0.396,-0.164,7.26,-106.97,58.32
1628948.611209,0.979,-0.289,-0.3,-100.41,-103.67,76.6
1628948.654340,1.212,-0.012,-0.109,-112.43,-105.2,122.53
1628948.701059,1.142,0.389,-0.737,-75.9,-161.08,319.83
1628948.744662,0.537,0.211,-0.946,-187.14,16.51,419.39
1628948.791640,-1.47,0.473,-0.484,-193.21,336.41,415.94
1628948.835170,-3.812,0.811,-2.019,-203.25,197.21,322.64
1628948.881875,-1.347,-2.78,-0.244,197.52,155.49,202.89
1628948.931396,-1.605,-1.324,-1.2,199.84,-245.77,-336.92
1628948.975053,-1.892,-0.955,-1.907,167.55,-233.92,-491.65
1628949.021459,-1.32,-0.875,-0.872,186.99,-118.14,-351.05
1628949.071885,-0.159,-0.742,-0.328,181.34,-106.81,-323.56
1628949.114999,0.343,-0.244,-0.308,84.78,-125.55,-289.59
1628949.161063,0.655,0.083,-0.44,3.97,-82.92,-240.76
1628949.201471,0.736,0.31,-0.628,-24.9,-71.84,-191.38
1628949.241895,0.827,0.366,-0.801,-13.64,-20.11,-132.08
1628949.284732,0.725,0.514,-0.761,-23.59,19.81,-76.2
1628949.335090,0.649,0.353,-0.863,-82.4,14.95,23.59
1628949.375285,0.752,0.222,-0.709,-46.48,40.41,57.1
1628949.420549,0.914,0.026,-0.656,1.89,57.34,138.37
1628949.460814,0.925,-0.16,-0.345,-31.25,93.69,147.89
1628949.501061,1.016,-0.42,-0.188,0.0,55.36,162.21
1628949.541222,1.199,-0.419,-0.332,-45.59,5.43,140.42
1628949.581375,1.475,-0.208,-0.216,-149.14,-4.27,81.51
1628949.624363,1.511,0.114,0.0,-103.06,-68.12,124.88
1628949.665127,1.161,0.193,-0.404,-55.24,-123.02,215.89
1628949.714441,0.613,0.133,-0.637,-177.37,-96.71,296.88
1628949.761289,-1.264,0.478,-0.475,-110.6,174.02,298.53
1628949.805022,-4.0,0.626,-1.869,-16.45,125.06,412.34
1628949.851131,-0.517,-3.902,0.788,-357.16,87.47,46.14
1628949.891787,-1.177,-1.777,-1.023,443.16,-8.39,-119.42
1628949.940974,-1.45,-0.641,-1.781,-41.57,-147.89,-391.67
1628949.981602,-1.578,-0.527,-1.021,142.25,-4.12,-337.93
1628950.024835,-0.382,-0.612,-0.957,97.42,-93.23,-283.09
1628950.065114,0.142,-0.409,-0.778,62.78,-18.56,-260.54
1628950.110817,0.607,-0.207,-0.479,61.01,-7.9,-208.9
1628950.151296,0.616,0.041,-0.364,40.47,3.45,-193.98
1628950.191501,0.691,0.228,-0.394,21.97,-29.11,-171.27
1628950.231564,0.829,0.35,-0.619,95.43,9.46,-108.74
1628950.274608,0.883,0.557,-0.71,81.73,10.04,-56.31
1628950.325083,0.94,0.203,-1.138,-44.34,6.96,5.55
1628950.370958,0.66,-0.074,-0.752,-10.99,103.4,46.48
1628950.411582,0.727,-0.277,-0.504,26.98,71.54,76.75
1628950.452726,0.807,-0.28,-0.38,22.16,78.34,77.39
1628950.495371,0.936,-0.254,-0.348,-10.8,37.23,91.25
1628950.540511,1.147,-0.204,-0.392,-64.67,12.42,85.51
1628950.580975,1.3,-0.075,-0.264,-101.69,-3.14,90.91
1628950.621959,1.38,0.217,-0.241,-113.38,-49.75,127.32
1628950.675034,1.04,0.057,-0.404,-217.38,-80.94,193.46
1628950.721523,0.576,0.041,-0.466,-241.25,-38.15,217.81
1628950.764946,-0.571,0.298,-0.296,-201.45,-40.07,253.4
1628950.811010,-2.814,0.764,-1.256,-44.74,-82.19,309.34
1628950.854410,-2.173,-0.854,-4.0,-561.48,-124.52,256.51
1628950.906765,-0.261,-2.246,-1.243,243.75,136.48,147.86
1628950.950630,-0.932,-0.089,-2.106,52.19,-46.45,-273.17
1628950.990854,-1.4,-0.157,-1.294,49.9,78.95,-292.52
1628951.031489,-1.119,-0.186,-1.208,149.82,42.12,-269.66
1628951.071825,-0.565,-0.337,-1.029,98.94,39.22,-287.45
1628951.114870,-0.061,-0.128,-0.984,130.89,57.28,-292.83
1628951.161480,0.425,0.087,-0.858,106.17,92.32,-220.01
1628951.205152,0.64,0.056,-0.385,98.12,119.66,-197.73
1628951.251888,0.641,0.371,-0.387,91.8,112.16,-174.23
1628951.295453,0.724,0.426,-0.292,108.92,93.72,-155.86
1628951.341468,0.857,0.588,-0.676,65.0,20.08,-98.27
1628951.394361,0.859,0.419,-0.729,6.62,40.83,-39.95
1628951.444541,0.732,0.013,-0.761,-27.83,49.71,23.44
1628951.484763,0.733,-0.066,-0.587,12.57,34.67,33.72
1628951.530165,0.897,-0.051,-0.41,5.58,37.02,59.21
1628951.575127,0.903,-0.218,-0.289,-27.07,26.49,60.73
1628951.621998,0.834,-0.342,-0.278,-31.37,10.28,43.76
1628951.670898,0.892,-0.406,-0.317,9.19,-0.76,29.15
1628951.711086,0.86,-0.436,-0.359,26.18,2.96,12.57
1628951.751698,0.855,-0.415,-0.397,29.21,-8.0,0.85
1628951.801476,0.804,-0.383,-0.395,29.51,1.8,-1.37
1628951.850869,0.751,-0.399,-0.355,38.88,4.67,-0.24
1628951.900514,0.773,-0.465,-0.386,30.61,9.43,0.85
1628951.941050,0.778,-0.462,-0.378,12.27,17.94,-7.39
1628951.985150,0.815,-0.459,-0.371,20.42,14.65,-3.51
1628952.035095,0.87,-0.43,-0.402,28.78,1.68,0.27
1628952.081889,0.856,-0.47,-0.386,4.0,11.84,2.59
1628952.131232,0.833,-0.483,-0.344,4.64,4.73,2.5
1628952.181004,0.793,-0.427,-0.325,-2.66,-0.46,-0.21
1628952.221443,0.774,-0.414,-0.327,-9.64,3.39,5.95
1628952.271697,0.763,-0.418,-0.308,-13.52,10.59,8.88
1628952.320617,0.801,-0.418,-0.329,-1.83,7.57,10.93
1628952.371258,0.834,-0.433,-0.346,-12.48,10.53,12.54
1628952.421609,0.856,-0.478,-0.31,-14.59,9.92,9.28
1628952.470818,0.862,-0.456,-0.322,-3.81,5.01,6.56
1628952.513227,0.851,-0.474,-0.294,-2.81,7.02,4.61
1628952.560610,0.834,-0.44,-0.283,1.59,0.82,-0.58
1628952.615777,0.837,-0.435,-0.302,1.92,-0.18,-0.52
1628952.661327,0.814,-0.451,-0.288,-4.27,1.59,-1.31
1628952.710811,0.821,-0.45,-0.312,-2.59,3.69,-2.04
1628952.755091,0.797,-0.436,-0.32,-6.16,5.83,-2.38
1628952.802870,0.82,-0.417,-0.327,-0.73,4.91,1.07
1628952.850297,0.831,-0.412,-0.32,-3.66,7.72,4.64
1628952.891441,0.834,-0.446,-0.307,-6.78,7.39,5.89
1628952.940708,0.833,-0.458,-0.301,-4.76,4.94,2.84
1628952.984940,0.826,-0.459,-0.305,-5.04,7.93,2.17
1628953.031397,0.827,-0.44,-0.291,-4.94,6.23,0.89
1628953.080962,0.84,-0.43,-0.281,-3.51,7.42,2.59
1628953.121757,0.836,-0.429,-0.273,-0.98,5.19,3.51
1628953.171409,0.856,-0.414,-0.286,-4.21,0.76,3.88
1628953.221144,0.844,-0.433,-0.257,-0.89,4.7,1.4
1628953.261319,0.824,-0.431,-0.264,2.11,4.09,1.5
1628953.310501,0.839,-0.438,-0.271,2.53,1.56,1.68
1628953.355056,0.816,-0.456,-0.318,-9.19,2.41,0.37
1628953.401732,0.807,-0.441,-0.324,-19.32,4.91,0.79
1628953.451404,0.821,-0.434,-0.314,-8.0,4.36,11.41
1628953.501678,0.887,-0.442,-0.287,-34.67,7.93,20.33
1628953.551552,0.94,-0.537,-0.187,-37.02,-9.74,9.61
1628953.601551,0.901,-0.519,-0.255,-13.73,-21.52,-5.86
1628953.641560,0.802,-0.463,-0.266,-21.64,-20.69,-20.97
1628953.681720,0.777,-0.407,-0.333,-20.33,-20.81,-25.88
1628953.735021,0.759,-0.371,-0.426,-15.75,-16.08,-26.8
1628953.785259,0.759,-0.32,-0.454,-2.14,-5.89,-13.31
1628953.831663,0.794,-0.331,-0.421,4.06,7.32,-3.05
1628953.880857,0.811,-0.341,-0.377,5.58,6.84,2.59
1628953.924953,0.82,-0.365,-0.353,-0.55,2.59,4.58
1628953.971323,0.84,-0.395,-0.363,-1.83,-6.35,4.7
1628954.020992,0.842,-0.416,-0.406,-9.13,-4.79,-0.09
1628954.064830,0.827,-0.411,-0.396,-12.27,-3.81,-4.03
1628954.111059,0.815,-0.378,-0.401,1.74,-4.94,-4.27
1628954.160232,0.799,-0.357,-0.404,0.37,-0.06,-2.93
1628954.201791,0.798,-0.345,-0.394,2.23,1.74,-0.7
1628954.251059,0.803,-0.355,-0.397,0.03,-2.9,3.17
1628954.295093,0.816,-0.382,-0.411,-5.04,-1.98,3.27
1628954.341417,0.814,-0.391,-0.396,-0.85,-0.43,4.27
1628954.390409,0.821,-0.394,-0.412,-2.04,0.0,2.99
1628954.431488,0.811,-0.389,-0.407,-0.37,-0.4,1.59
1628954.480752,0.808,-0.377,-0.405,-0.79,-1.74,0.49
1628954.530102,0.814,-0.372,-0.406,-2.01,-0.64,1.01
1628954.571351,0.816,-0.369,-0.405,-0.52,0.03,1.43
1628954.621018,0.812,-0.382,-0.394,-1.07,1.46,1.74
1628954.664870,0.805,-0.38,-0.388,0.0,0.52,1.01
1628954.710936,0.807,-0.36,-0.412,1.34,0.18,1.5
1628954.760283,0.811,-0.374,-0.421,0.18,1.86,2.26
1628954.801707,0.814,-0.384,-0.409,0.34,3.36,3.14
1628954.850683,0.814,-0.391,-0.397,2.78,1.56,1.16
1628954.895069,0.824,-0.397,-0.402,1.19,2.78,-0.31
1628954.941302,0.819,-0.387,-0.4,1.43,2.23,-1.65
1628954.981427,0.813,-0.387,-0.393,0.37,1.37,-1.28
1628955.021590,0.818,-0.393,-0.395,0.89,1.04,-1.16
1628955.071283,0.814,-0.395,-0.402,-0.15,2.17,-3.11
1628955.114773,0.816,-0.388,-0.396,1.19,1.92,-3.3
1628955.161034,0.819,-0.372,-0.396,-0.24,1.46,-3.48
1628955.210439,0.82,-0.361,-0.401,-2.01,0.92,-2.11
1628955.251747,0.822,-0.366,-0.396,-2.32,2.87,-1.22
1628955.300903,0.815,-0.362,-0.378,-2.99,1.56,-0.21
1628955.345228,0.817,-0.372,-0.385,-2.78,0.52,-0.15
1628955.391337,0.819,-0.364,-0.397,-1.56,1.07,-0.7
1628955.440524,0.824,-0.361,-0.396,-1.31,1.1,-0.58
1628955.481749,0.826,-0.364,-0.4,-0.73,1.65,0.21
1628955.531108,0.824,-0.359,-0.396,0.31,1.68,0.03
1628955.574983,0.819,-0.365,-0.396,0.4,2.47,0.31
1628955.621300,0.815,-0.373,-0.389,1.68,1.8,0.98
1628955.670609,0.812,-0.372,-0.4,-0.98,2.66,1.25
1628955.711708,0.801,-0.385,-0.395,-2.5,4.49,1.77
1628955.760921,0.79,-0.445,-0.392,-5.04,8.61,0.52
1628955.810196,0.787,-0.506,-0.371,-6.99,8.24,-8.42
1628955.855179,0.804,-0.516,-0.377,-17.15,11.44,-18.25
1628955.900940,0.851,-0.355,-0.355,-0.92,7.97,-39.0
1628955.945500,0.893,-0.23,-0.391,41.2,9.31,-32.56
1628955.990672,0.892,-0.111,-0.383,59.94,9.89,-17.15
1628956.035182,0.892,0.104,-0.363,83.25,-4.33,21.79
1628956.080504,1.188,0.188,-0.397,62.53,-17.67,90.24
1628956.121224,1.328,0.29,-0.196,-10.38,26.73,130.13
1628956.171556,1.557,1.05,-0.2,-80.36,-52.19,174.02
1628956.214600,1.524,1.372,-0.495,-93.69,-194.04,333.87
1628956.261572,0.894,0.731,-1.203,-277.38,-77.33,491.74
1628956.305078,-1.198,0.485,-0.898,-443.34,267.04,479.48
1628956.352018,-3.989,1.412,-2.299,83.62,-100.31,488.75
1628956.394848,-0.733,-3.825,-0.959,-525.22,-10.1,34.88
1628956.444520,-1.255,-1.23,-1.732,421.09,-71.29,-260.26
1628956.491313,-1.976,-0.278,-1.602,160.13,-6.1,-460.52
1628956.532188,-1.016,-0.527,-1.118,240.97,-88.08,-321.36
1628956.574832,-0.289,-0.598,-0.676,210.0,-47.33,-286.87
1628956.621525,0.434,-0.414,-0.482,136.85,-67.38,-260.66
1628956.664657,0.599,-0.164,-0.56,68.64,-36.16,-257.36
1628956.710564,0.673,0.081,-0.4,41.99,-5.8,-215.09
1628956.750987,0.752,0.219,-0.522,20.91,-14.1,-171.24
1628956.801261,0.815,0.485,-0.653,-24.17,8.09,-131.35
1628956.841673,0.737,0.678,-0.945,-107.64,-36.56,-67.72
1628956.881766,0.726,0.572,-1.11,-104.37,-25.61,14.16
1628956.935154,0.496,0.123,-0.616,-48.31,94.91,80.75
1628956.975240,0.605,-0.05,-0.355,-1.37,23.01,114.35
1628957.021112,0.843,-0.118,-0.522,13.89,9.37,127.93
1628957.071848,0.906,-0.129,-0.405,-6.29,17.27,135.17
1628957.121486,1.339,-0.223,-0.3,-1.53,13.89,103.0
1628957.175002,1.491,0.05,-0.206,-79.9,14.83,74.74
1628957.221578,1.37,0.282,-0.035,-56.95,-56.86,83.38
1628957.271622,1.126,0.404,-0.402,-19.38,-180.82,198.19
1628957.315581,0.439,0.381,-0.626,-95.71,-167.09,302.53
1628957.361597,-1.555,0.232,-0.342,-68.97,38.36,383.53
1628957.405320,-4.0,0.293,-1.814,86.76,101.93,509.78
1628957.451471,-0.443,-4.0,0.607,-67.9,78.62,185.46
1628957.494637,-1.597,-1.192,-1.279,284.13,-110.11,-332.35
1628957.541418,-1.938,-0.57,-1.072,-24.32,16.54,-376.84
1628957.582046,-1.414,-0.628,-0.794,144.63,-72.18,-322.43
1628957.624798,-0.581,-0.801,-0.815,106.54,-54.87,-296.33
1628957.670905,0.165,-0.592,-0.665,52.28,-48.43,-264.41
1628957.711286,0.526,-0.269,-0.524,55.3,19.81,-242.53
1628957.752847,0.507,0.039,-0.299,54.93,41.63,-241.46
1628957.795018,0.634,0.247,-0.454,43.79,-1.1,-205.33
1628957.836066,0.846,0.36,-0.568,29.88,0.98,-162.97
1628957.880932,0.767,0.729,-0.928,20.69,4.7,-100.25
1628957.921809,0.845,0.647,-1.301,-4.73,-48.46,-17.4
1628957.965299,0.701,0.073,-1.156,-69.95,96.8,70.96
1628958.011474,0.35,-0.549,-0.159,-110.84,105.23,84.54
1628958.051815,0.706,-0.549,-0.393,51.94,-37.42,82.06
1628958.104803,0.845,-0.383,-0.684,-79.04,9.89,78.98
1628958.145106,0.873,-0.348,-0.486,-102.76,19.62,84.78
1628958.185342,1.072,-0.32,-0.345,-15.2,40.31,85.94
1628958.231281,1.29,-0.079,-0.181,19.96,16.51,62.9
1628958.282033,1.375,0.287,-0.326,-30.21,-46.42,48.13
1628958.331470,1.274,0.382,-0.384,-4.06,-70.47,116.18
1628958.371851,0.96,0.376,-0.47,-82.95,-84.11,211.71
1628958.414939,0.413,0.254,-0.587,-188.7,-83.99,305.43
1628958.461359,-0.778,0.178,-0.401,-232.46,46.14,329.26
1628958.505119,-3.008,0.341,-0.417,0.43,24.78,334.67
1628958.551429,-1.48,-1.741,-3.546,-559.25,-113.22,257.09
1628958.591793,-0.126,-2.897,-0.742,203.13,200.84,129.58
1628958.635505,-1.214,-0.771,-1.889,308.91,-68.3,-225.01
1628958.682027,-1.615,-0.731,-1.277,124.21,29.3,-323.13
1628958.724967,-1.045,-0.787,-1.181,195.41,-13.89,-285.41
1628958.771426,-0.027,-0.798,-0.951,113.32,-8.91,-278.66
1628958.811899,0.372,-0.469,-0.725,97.17,32.41,-256.66
1628958.855028,0.594,-0.215,-0.22,86.92,86.98,-251.29
1628958.901480,0.603,0.313,-0.058,78.68,35.0,-222.79
1628958.941509,0.823,0.57,-0.195,29.79,-6.78,-177.19
1628958.981533,0.859,0.695,-0.357,14.04,14.44,-119.57
1628959.021620,0.874,0.573,-0.678,-19.29,-24.78,-42.09
1628959.071687,0.949,0.009,-0.694,-45.38,14.5,11.02
1628959.124921,0.784,-0.176,-0.635,-22.8,43.12,32.47
1628959.170825,0.613,-0.287,-0.604,-74.13,56.67,36.23
1628959.210951,0.617,-0.142,-0.403,-55.67,31.28,35.77
1628959.255298,0.843,-0.112,-0.453,-11.38,-4.91,70.31
1628959.301101,0.848,-0.274,-0.398,-43.28,58.57,83.29
1628959.341114,0.794,-0.454,-0.177,-20.05,70.1,87.86
1628959.390866,0.837,-0.475,-0.143,41.9,36.77,67.87
1628959.431950,0.917,-0.431,-0.185,35.31,36.62,54.93
1628959.481477,0.937,-0.48,-0.114,6.38,45.47,40.62
1628959.521565,0.941,-0.555,-0.028,29.48,42.82,35.19
1628959.571928,0.948,-0.545,0.039,81.73,8.21,31.04
1628959.625249,0.935,-0.523,-0.008,117.83,-26.95,42.36
1628959.671451,0.862,-0.51,0.186,83.25,-44.71,47.76
1628959.721935,0.813,-0.516,0.314,185.06,-80.94,112.67
1628959.765207,0.658,-0.583,0.307,162.54,-68.58,178.96
1628959.811412,0.37,-0.798,0.465,94.76,-95.03,216.53
1628959.854841,0.08,-0.916,0.388,55.7,-114.66,196.42
1628959.901413,-0.213,-1.18,0.331,-9.89,-107.03,129.8
1628959.941795,-0.34,-1.189,0.2,-53.29,-138.58,79.41
1628959.984384,-0.287,-1.257,0.06,-47.03,-118.2,39.34
1628960.024598,-0.266,-1.132,-0.106,-47.49,-54.66,-16.6
1628960.070237,-0.203,-1.035,-0.171,-43.37,-67.48,-46.97
1628960.120623,-0.022,-0.929,-0.272,-18.16,-43.64,-53.07
1628960.160836,0.056,-0.928,-0.256,-28.93,-12.76,-35.55
1628960.201024,0.172,-0.967,-0.216,-24.87,-19.1,-30.46
1628960.251138,0.303,-0.972,-0.283,-4.12,9.61,-27.53
1628960.301451,0.37,-0.909,-0.179,-14.47,32.56,-7.69
1628960.351495,0.391,-0.874,-0.137,-0.06,16.24,15.9
1628960.401582,0.338,-0.933,-0.117,-6.81,10.8,31.04
1628960.451725,0.221,-0.937,-0.154,-17.21,-14.04,22.86
1628960.501803,0.182,-0.974,-0.217,-20.6,10.38,2.5
1628960.551984,0.079,-1.023,-0.187,-14.19,34.42,7.08
1628960.601909,0.059,-1.017,-0.15,12.82,16.63,-13.49
1628960.655230,0.125,-0.954,-0.186,26.28,17.03,-22.28
1628960.701110,0.156,-0.949,-0.179,10.19,39.77,-18.56
1628960.750952,0.191,-1.0,-0.161,-9.34,61.53,-25.76
1628960.791153,0.21,-1.003,-0.16,-12.57,78.68,-35.31
1628960.831356,0.208,-0.979,-0.166,-23.62,92.35,-32.75
1628960.871573,0.279,-1.005,-0.131,-23.29,96.41,-43.09
1628960.921352,0.303,-0.918,-0.132,-5.46,116.58,-46.3
1628960.972118,0.35,-0.855,-0.01,3.08,123.26,-34.94
1628961.015286,0.388,-0.865,0.042,16.51,116.34,-31.95
1628961.055392,0.416,-0.809,0.088,18.4,102.39,-25.21
1628961.100618,0.506,-0.832,0.131,3.45,98.7,-5.28
1628961.145232,0.524,-0.844,0.221,-9.95,115.36,1.22
1628961.185335,0.517,-0.859,0.271,-39.12,119.27,-0.31
1628961.231408,0.505,-0.89,0.307,-43.82,109.81,-11.66
1628961.271575,0.506,-0.863,0.392,-22.19,97.05,-15.96
1628961.321696,0.535,-0.86,0.489,8.73,76.63,-20.57
1628961.372199,0.533,-0.755,0.495,21.42,53.74,-35.37
1628961.425163,0.549,-0.693,0.463,-0.64,27.22,-22.58
1628961.471210,0.535,-0.72,0.38,-25.36,2.35,-12.15
1628961.515103,0.541,-0.804,0.341,-42.27,-8.88,-11.84
1628961.560845,0.533,-0.829,0.275,-34.94,-20.63,-15.84
1628961.600872,0.528,-0.843,0.176,-22.98,-31.56,-8.79
1628961.645089,0.535,-0.871,0.109,-11.44,-29.05,-4.15
1628961.694886,0.51,-0.888,0.103,13.25,-16.94,-6.38
1628961.744984,0.507,-0.862,0.137,25.7,-12.51,-1.8
1628961.794909,0.509,-0.806,0.15,26.06,-7.87,2.66
1628961.841615,0.506,-0.799,0.162,5.65,4.21,5.25
1628961.891177,0.495,-0.819,0.233,-5.16,9.67,4.39
1628961.940414,0.508,-0.821,0.244,2.62,3.05,8.85
1628961.981734,0.503,-0.81,0.25,0.92,-0.37,10.35
1628962.032630,0.504,-0.843,0.238,-3.51,-8.06,11.78
1628962.081281,0.513,-0.869,0.192,-9.95,-14.53,4.73
1628962.130900,0.502,-0.886,0.184,-9.16,-8.36,-2.75
1628962.175108,0.49,-0.844,0.13,-8.51,-10.5,-5.49
1628962.224999,0.524,-0.733,0.087,-8.18,-16.97,-3.02
1628962.271771,0.559,-0.787,0.081,4.82,-1.77,16.69
1628962.321908,0.521,-0.852,0.159,-0.73,14.01,11.29
1628962.371913,0.546,-0.91,0.285,35.98,4.03,24.9
1628962.425075,0.43,-0.894,0.37,43.64,28.26,22.49
1628962.475258,0.353,-0.779,0.398,17.24,-0.49,-6.65
1628962.525232,0.419,-0.841,0.271,-14.8,-24.96,-24.9
1628962.565301,0.476,-0.913,0.15,-31.62,-19.38,-38.39
1628962.610405,0.411,-0.89,0.108,-41.57,26.18,-35.34
1628962.651006,0.42,-0.82,0.105,-3.72,8.67,-13.64
1628962.691995,0.525,-0.806,0.056,34.12,-3.94,13.25
1628962.744868,0.541,-0.833,0.108,40.99,-0.67,29.3
1628962.794615,0.533,-0.882,0.22,35.28,18.59,30.37
1628962.835332,0.526,-0.848,0.323,18.8,31.53,13.18
1628962.885147,0.54,-0.922,0.363,-17.91,35.92,-3.42
1628962.931281,0.477,-0.98,0.443,-36.53,37.32,-36.59
1628962.971300,0.473,-0.939,0.413,-37.93,18.25,-45.44
1628963.020884,0.515,-0.858,0.266,-80.17,5.13,-50.6
1628963.061118,0.514,-0.825,0.218,-117.62,10.62,-54.75
1628963.111211,0.516,-0.729,0.262,-46.82,-45.59,-42.63
1628963.161543,0.678,-0.728,0.133,19.59,-85.79,-0.06
1628963.211527,0.675,-0.674,0.113,26.4,-52.06,0.76
1628963.252315,0.665,-0.761,0.011,-35.55,-23.32,10.62
1628963.302008,0.596,-0.829,0.032,-117.59,2.66,-51.18
1628963.355149,0.535,-0.763,0.077,-49.93,-18.43,-72.45
1628963.401044,0.595,-0.645,-0.054,40.65,-37.51,-44.59
1628963.451135,0.657,-0.568,-0.118,57.89,-1.92,-34.61
