t_monotonic,ax,ay,az,gx,gy,gz
592087.531000,-1.042,-0.458,-0.377,59.11,-30.98,2.01
592087.578000,-1.055,-0.553,-0.381,136.81,-38.64,-37.57
592087.640000,-1.106,-0.58,-0.256,196.63,-59.24,-57.65
592087.687000,-1.081,-0.507,-0.123,191.35,-89.91,-74.83
592087.734000,-1.043,-0.516,-0.0,173.86,-105.32,-74.89
592087.781000,-0.888,-0.443,0.056,117.5,-110.84,-87.19
592087.828000,-0.931,-0.498,0.25,82.86,-87.98,-74.19
592087.875000,-0.785,-0.39,0.176,80.11,-114.26,-68.91
592087.921000,-0.815,-0.487,0.5,111.3,-79.74,-32.07
592087.968000,-0.714,-0.38,0.368,89.91,-120.55,-24.96
592088.015000,-0.505,-0.412,0.428,18.13,-69.92,-23.68
592088.062000,-0.446,-0.423,0.429,3.11,-49.07,-14.71
592088.109000,-0.456,-0.468,0.487,20.54,-23.62,4.0
592088.156000,-0.499,-0.481,0.538,7.2,-6.07,1.43
592088.203000,-0.593,-0.538,0.746,15.56,3.45,13.43
592088.250000,-0.609,-0.503,0.774,80.87,-29.51,25.97
592088.296000,-0.572,-0.472,0.842,86.67,-43.76,24.78
592088.343000,-0.538,-0.404,0.887,76.82,-48.31,22.06
592088.390000,-0.491,-0.329,0.861,48.19,-54.99,16.39
592088.437000,-0.467,-0.299,0.885,40.31,-44.83,9.16
592088.484000,-0.438,-0.262,0.861,22.0,-45.96,8.48
592088.531000,-0.438,-0.234,0.91,16.05,-41.84,-0.95
592088.578000,-0.371,-0.209,0.893,11.69,-43.89,7.66
592088.625000,-0.325,-0.234,0.904,6.78,-39.55,7.51
592088.671000,-0.229,-0.221,0.829,-6.47,-38.36,10.1
592088.718000,-0.226,-0.252,0.851,-3.45,-13.92,11.57
592088.765000,-0.217,-0.233,0.861,-1.74,-12.05,5.58
592088.812000,-0.189,-0.271,0.84,-11.41,3.91,-3.17
592088.859000,-0.218,-0.264,0.86,-2.41,13.21,-1.68
592088.906000,-0.282,-0.243,0.93,5.34,23.26,-2.56
592088.953000,-0.361,-0.202,1.033,15.17,15.96,-1.68
592089.000000,-0.318,-0.236,0.992,-3.85,-1.65,0.7
592089.046000,-0.276,-0.243,0.924,-2.93,-2.75,0.21
592089.093000,-0.238,-0.26,0.816,-29.27,-1.4,-2.59
592089.140000,-0.226,-0.276,0.713,-57.07,16.79,-14.37
592089.187000,-0.258,-0.311,0.69,-88.05,44.22,-15.75
592089.234000,-0.373,-0.39,0.749,-93.6,65.31,-10.59
592089.281000,-0.491,-0.451,0.846,-42.09,74.16,13.92
592089.328000,-0.488,-0.479,0.713,-74.31,52.83,4.61
592089.375000,-0.46,-0.527,0.673,-91.22,60.82,3.69
592089.421000,-0.34,-0.476,0.408,-129.58,50.63,-5.55
592089.468000,-0.399,-0.467,0.174,-226.08,95.31,9.25
592089.515000,-0.566,-0.618,0.115,-282.36,170.35,49.62
592089.562000,-0.83,-0.638,0.045,-278.66,122.65,76.66
592089.609000,-0.908,-0.686,-0.008,-199.13,64.91,113.65
592089.656000,-1.041,-0.615,-0.197,-50.26,-10.16,155.03
592089.703000,-1.063,-0.641,-0.371,-8.27,-4.67,152.47
592089.765000,-1.049,-0.522,-0.373,-18.92,21.97,91.59
592089.812000,-1.031,-0.427,-0.294,12.27,29.36,75.84
592089.859000,-0.97,-0.317,-0.355,14.31,27.38,59.11
592089.906000,-0.97,-0.246,-0.351,-14.8,39.67,38.64
592089.953000,-1.002,-0.221,-0.323,-38.15,41.02,34.49
592090.000000,-1.023,-0.241,-0.339,-48.22,19.2,29.24
592090.046000,-0.967,-0.254,-0.381,-47.7,1.46,8.24
592090.093000,-0.901,-0.232,-0.374,-19.29,-5.86,-10.44
592090.140000,-0.88,-0.164,-0.373,10.71,-8.45,-12.67
592090.187000,-0.887,-0.103,-0.388,33.69,-5.83,0.79
592090.234000,-0.897,-0.106,-0.391,20.78,-1.1,14.98
592090.281000,-0.936,-0.156,-0.412,-1.8,-2.47,14.53
592090.328000,-0.925,-0.188,-0.371,-10.47,-3.97,7.14
592090.375000,-0.923,-0.169,-0.382,1.83,-5.34,-1.25
592090.421000,-0.918,-0.142,-0.388,4.06,-4.39,-5.28
592090.468000,-0.914,-0.125,-0.383,-0.43,-2.72,-7.6
592090.515000,-0.915,-0.12,-0.37,-0.89,-2.32,-6.5
592090.562000,-0.917,-0.121,-0.372,-7.93,-2.99,-8.48
592090.609000,-0.923,-0.114,-0.368,-7.6,-3.69,-9.61
592090.656000,-0.922,-0.104,-0.376,-7.45,-3.69,-9.52
592090.703000,-0.916,-0.094,-0.379,-6.23,-2.17,-8.15
592090.750000,-0.912,-0.088,-0.387,-1.34,-4.91,-4.94
592090.796000,-0.902,-0.093,-0.399,6.29,-2.75,3.85
592090.843000,-0.91,-0.104,-0.381,-1.89,2.17,6.44
592090.890000,-0.916,-0.114,-0.365,-5.1,2.38,7.78
592090.937000,-0.919,-0.128,-0.366,-9.22,2.04,7.75
592090.984000,-0.931,-0.141,-0.378,-9.31,2.32,4.7
592091.031000,-0.927,-0.13,-0.381,-5.71,2.44,-1.04
592091.078000,-0.916,-0.104,-0.375,0.06,3.85,-0.06
592091.125000,-0.908,-0.097,-0.371,-2.35,4.46,2.11
592091.171000,-0.914,-0.105,-0.358,-5.68,4.03,5.01
592091.218000,-0.916,-0.121,-0.36,-6.41,2.87,5.92
592091.265000,-0.929,-0.126,-0.351,-3.75,3.36,4.67
592091.312000,-0.927,-0.131,-0.351,-2.44,0.06,1.89
592091.359000,-0.916,-0.117,-0.372,-3.72,-2.93,-4.52
592091.406000,-0.912,-0.114,-0.37,-4.97,-1.98,-6.44
592091.453000,-0.917,-0.107,-0.375,-2.23,-2.26,-6.71
592091.500000,-0.918,-0.107,-0.379,-0.98,-1.77,-6.59
592091.546000,-0.923,-0.09,-0.379,0.89,-0.73,-7.11
592091.593000,-0.919,-0.088,-0.381,1.01,-1.01,-6.44
592091.656000,-0.911,-0.082,-0.381,1.31,-0.21,-4.39
592091.703000,-0.909,-0.08,-0.378,1.37,0.73,-0.92
592091.750000,-0.911,-0.092,-0.376,2.66,0.06,3.27
592091.796000,-0.912,-0.097,-0.374,-0.34,0.61,3.78
592091.843000,-0.915,-0.104,-0.371,-1.86,0.27,5.28
592091.890000,-0.912,-0.112,-0.372,-3.02,0.98,5.77
592091.937000,-0.916,-0.118,-0.367,-2.04,1.31,5.49
592091.984000,-0.919,-0.126,-0.367,0.12,1.01,4.82
592092.031000,-0.925,-0.127,-0.362,1.89,1.04,3.42
592092.078000,-0.923,-0.124,-0.36,3.05,-0.67,0.67
592092.125000,-0.919,-0.115,-0.37,2.62,-1.37,-1.22
592092.171000,-0.915,-0.11,-0.368,0.82,-0.52,-2.29
592092.218000,-0.917,-0.106,-0.371,1.25,-0.92,-2.01
592092.265000,-0.92,-0.103,-0.373,-0.12,-0.52,-2.14
592092.312000,-0.92,-0.1,-0.373,-0.09,0.06,-2.17
592092.359000,-0.92,-0.096,-0.375,-0.85,-0.31,-2.62
592092.406000,-0.923,-0.092,-0.373,0.18,0.52,-0.27
592092.453000,-0.918,-0.098,-0.373,-0.98,-0.37,0.37
592092.500000,-0.918,-0.099,-0.377,-1.83,0.46,0.55
592092.546000,-0.92,-0.101,-0.369,-2.01,0.67,0.73
592092.593000,-0.922,-0.108,-0.366,-1.43,0.7,1.04
592092.640000,-0.919,-0.108,-0.362,-0.95,0.18,0.06
592092.687000,-0.922,-0.103,-0.362,-0.52,0.15,0.46
592092.734000,-0.915,-0.104,-0.365,0.67,-1.31,-0.06
592092.781000,-0.915,-0.099,-0.375,0.7,-0.15,0.21
592092.828000,-0.918,-0.102,-0.374,0.73,0.15,0.55
592092.875000,-0.917,-0.1,-0.376,0.0,0.58,0.52
592092.921000,-0.92,-0.099,-0.369,-0.85,1.37,0.73
592092.968000,-0.917,-0.102,-0.371,-0.85,1.04,1.04
592093.015000,-0.921,-0.102,-0.368,-1.92,1.77,0.76
592093.062000,-0.92,-0.104,-0.365,-1.89,1.04,0.61
592093.109000,-0.919,-0.102,-0.368,-2.72,1.31,0.18
592093.156000,-0.918,-0.104,-0.366,-2.5,0.73,0.12
592093.203000,-0.915,-0.105,-0.367,-1.77,1.25,0.03
592093.250000,-0.918,-0.103,-0.368,-1.13,0.55,-0.7
592093.296000,-0.918,-0.103,-0.365,0.24,1.01,-0.82
592093.343000,-0.918,-0.1,-0.366,0.76,0.37,-1.19
592093.406000,-0.916,-0.092,-0.368,0.52,0.15,-1.77
592093.453000,-0.913,-0.092,-0.367,0.31,-0.24,-0.98
592093.500000,-0.923,-0.088,-0.367,0.18,-0.03,-0.12
592093.546000,-0.918,-0.1,-0.369,-0.31,-1.37,0.98
592093.593000,-0.913,-0.101,-0.375,-0.15,0.09,0.46
592093.640000,-0.923,-0.102,-0.365,-0.21,0.06,0.67
592093.687000,-0.919,-0.107,-0.371,0.18,-0.73,0.58
592093.750000,-0.918,-0.107,-0.366,-0.37,0.15,-0.73
592093.796000,-0.921,-0.099,-0.365,-0.09,0.61,-0.67
592093.843000,-0.92,-0.099,-0.361,0.0,0.46,-0.7
592093.890000,-0.917,-0.097,-0.37,-0.21,0.03,-0.82
592093.937000,-0.924,-0.094,-0.367,0.21,0.95,-0.15
592093.984000,-0.92,-0.098,-0.365,0.95,-0.21,0.31
592094.031000,-0.916,-0.097,-0.371,1.04,-0.27,0.37
592094.078000,-0.92,-0.1,-0.37,3.51,0.06,1.28
592094.125000,-0.92,-0.103,-0.368,2.59,0.43,1.25
592094.171000,-0.921,-0.103,-0.367,2.99,0.85,1.74
592094.218000,-0.919,-0.103,-0.367,0.76,0.7,1.65
592094.265000,-0.919,-0.108,-0.367,0.79,0.4,-0.52
592094.312000,-0.922,-0.104,-0.366,0.4,1.01,-1.16
592094.359000,-0.92,-0.1,-0.364,0.85,0.98,-0.95
592094.406000,-0.92,-0.094,-0.367,2.32,0.52,-0.64
592094.453000,-0.919,-0.097,-0.366,1.89,0.61,0.49
592094.500000,-0.92,-0.099,-0.364,1.65,0.55,1.19
592094.546000,-0.918,-0.101,-0.367,0.43,-0.7,1.25
592094.593000,-0.918,-0.105,-0.373,1.68,-0.58,1.86
592094.640000,-0.921,-0.106,-0.369,1.89,0.52,2.14
592094.687000,-0.913,-0.112,-0.367,0.95,0.09,0.95
592094.734000,-0.919,-0.106,-0.37,0.49,1.74,0.27
592094.781000,-0.926,-0.105,-0.36,1.07,0.76,0.18
592094.828000,-0.92,-0.104,-0.369,0.49,-0.15,-0.49
592094.875000,-0.917,-0.1,-0.369,1.16,0.09,-0.09
592094.921000,-0.921,-0.1,-0.37,0.58,-0.03,0.82
592094.968000,-0.917,-0.107,-0.37,-1.89,0.76,0.21
592095.015000,-0.922,-0.103,-0.369,-0.79,1.86,0.24
592095.062000,-0.923,-0.101,-0.364,-1.37,1.28,-0.09
592095.109000,-0.919,-0.1,-0.369,-0.58,1.19,-0.21
592095.156000,-0.919,-0.098,-0.368,0.06,0.4,0.0
592095.203000,-0.919,-0.101,-0.369,0.12,0.79,0.64
592095.250000,-0.919,-0.104,-0.369,-0.09,0.67,0.34
592095.296000,-0.918,-0.101,-0.37,-1.13,1.37,-0.49
592095.343000,-0.921,-0.1,-0.366,-0.37,1.25,-0.06
592095.390000,-0.918,-0.098,-0.371,-1.62,0.92,-0.4
592095.437000,-0.917,-0.099,-0.371,-0.82,0.76,-0.06
592095.484000,-0.916,-0.099,-0.371,-1.34,0.15,-0.09
592095.531000,-0.918,-0.101,-0.368,-1.04,0.67,-0.06
592095.578000,-0.919,-0.099,-0.366,-0.34,-0.18,0.12
592095.625000,-0.917,-0.099,-0.368,-0.34,-0.46,0.15
592095.671000,-0.92,-0.101,-0.367,0.46,-0.34,0.64
592095.718000,-0.919,-0.102,-0.367,-0.43,-0.67,-0.06
592095.765000,-0.917,-0.104,-0.369,-0.55,-0.61,-0.15
592095.812000,-0.92,-0.103,-0.37,-0.24,-0.49,-0.4
592095.859000,-0.921,-0.098,-0.369,0.15,-0.43,-0.61
592095.906000,-0.926,-0.093,-0.36,0.55,-0.55,1.28
592095.953000,-0.916,-0.103,-0.37,-2.04,-1.56,0.12
592096.000000,-0.92,-0.099,-0.365,-0.18,0.82,-0.09
592096.046000,-0.924,-0.101,-0.362,-0.31,0.31,-0.82
592096.093000,-0.921,-0.098,-0.362,-0.03,-0.15,-1.43
592096.140000,-0.92,-0.095,-0.366,0.52,-0.27,-0.98
592096.187000,-0.928,-0.098,-0.366,-0.55,0.4,0.21
592096.234000,-0.921,-0.105,-0.367,-0.92,-0.09,-0.89
592096.281000,-0.919,-0.094,-0.372,-0.55,0.49,-0.98
592096.328000,-0.924,-0.094,-0.366,-1.31,1.1,0.24
592096.375000,-0.923,-0.099,-0.366,-1.62,0.95,0.21
592096.421000,-0.921,-0.099,-0.369,-1.92,0.98,-0.15
592096.484000,-0.921,-0.097,-0.367,-0.46,1.31,0.89
592096.531000,-0.921,-0.101,-0.367,-0.82,1.34,0.52
592096.578000,-0.919,-0.101,-0.369,-0.89,1.16,0.24
592096.625000,-0.919,-0.098,-0.371,-0.98,1.46,0.21
592096.671000,-0.918,-0.099,-0.368,-1.8,1.62,0.24
592096.718000,-0.918,-0.099,-0.369,-1.86,1.34,-0.24
592096.765000,-0.919,-0.097,-0.371,-1.92,1.46,-0.18
592096.812000,-0.918,-0.098,-0.368,-1.71,1.59,0.03
592096.859000,-0.918,-0.097,-0.369,-2.14,1.31,-0.21
592096.906000,-0.918,-0.095,-0.369,-1.98,1.16,-0.49
592096.953000,-0.918,-0.091,-0.37,-2.17,0.73,-0.43
592097.000000,-0.917,-0.092,-0.369,-2.38,0.43,-0.34
592097.046000,-0.914,-0.092,-0.37,-1.92,0.58,-0.03
592097.093000,-0.914,-0.094,-0.368,-1.8,0.06,0.27
592097.156000,-0.92,-0.086,-0.371,-0.31,0.49,0.76
592097.203000,-0.917,-0.092,-0.37,-0.95,-0.43,1.01
592097.250000,-0.908,-0.092,-0.381,0.82,-0.03,0.85
592097.296000,-0.918,-0.089,-0.37,0.85,0.67,1.5
592097.343000,-0.92,-0.096,-0.375,0.12,-0.73,1.01
592097.390000,-0.916,-0.097,-0.372,0.79,0.0,0.52
592097.437000,-0.919,-0.094,-0.379,1.37,0.03,0.21
592097.484000,-0.919,-0.096,-0.373,1.22,0.43,0.24
592097.531000,-0.916,-0.094,-0.376,0.92,0.03,-0.43
592097.578000,-0.921,-0.088,-0.371,0.06,1.31,-0.43
592097.625000,-0.919,-0.092,-0.371,-0.09,0.67,-0.58
592097.671000,-0.919,-0.089,-0.375,0.82,0.82,-0.76
592097.718000,-0.918,-0.084,-0.372,1.65,0.49,-0.15
592097.765000,-0.916,-0.087,-0.375,1.8,-0.03,0.4
592097.812000,-0.917,-0.09,-0.376,1.74,0.12,0.79
592097.859000,-0.917,-0.093,-0.374,1.25,0.15,0.79
592097.906000,-0.917,-0.098,-0.372,0.98,0.31,0.4
592097.953000,-0.92,-0.098,-0.367,0.61,0.64,0.03
592098.000000,-0.919,-0.095,-0.367,0.43,-0.06,-0.37
592098.046000,-0.918,-0.094,-0.365,0.43,-0.24,-0.27
592098.093000,-0.919,-0.093,-0.368,-0.37,-0.64,-0.24
592098.140000,-0.919,-0.094,-0.371,-0.85,-0.92,-0.15
592098.187000,-0.919,-0.093,-0.376,-0.15,-1.1,-0.06
592098.234000,-0.921,-0.09,-0.374,-0.18,-0.27,-0.24
592098.281000,-0.919,-0.091,-0.373,0.21,-0.79,-0.09
592098.328000,-0.923,-0.088,-0.374,1.34,0.79,0.49
592098.375000,-0.923,-0.097,-0.364,0.46,-0.03,1.19
592098.421000,-0.917,-0.098,-0.368,0.06,0.27,0.46
592098.468000,-0.922,-0.098,-0.367,0.27,0.09,0.24
592098.515000,-0.922,-0.1,-0.366,1.53,-0.27,0.03
592098.562000,-0.916,-0.098,-0.367,0.37,-0.61,-0.92
592098.609000,-0.92,-0.091,-0.371,-1.07,0.0,-0.76
592098.656000,-0.922,-0.101,-0.369,-2.17,0.4,-0.4
592098.703000,-0.917,-0.096,-0.368,-1.89,0.46,-1.43
592098.750000,-0.922,-0.091,-0.365,-0.85,1.13,-0.73
592098.796000,-0.923,-0.093,-0.364,-0.24,0.15,-0.49
592098.843000,-0.92,-0.09,-0.366,-0.18,0.61,-0.52
592098.890000,-0.923,-0.092,-0.364,-0.06,0.31,0.31
592098.937000,-0.921,-0.095,-0.365,0.95,0.27,0.49
592098.984000,-0.919,-0.095,-0.369,0.79,-0.27,0.34
592099.046000,-0.92,-0.097,-0.37,1.34,1.16,0.55
592099.093000,-0.919,-0.096,-0.371,0.4,1.16,0.24
592099.140000,-0.92,-0.098,-0.368,0.85,1.56,0.46
592099.187000,-0.922,-0.098,-0.366,1.46,1.4,0.27
592099.234000,-0.919,-0.098,-0.364,1.04,0.85,0.52
592099.281000,-0.917,-0.099,-0.369,1.34,0.37,0.46
592099.328000,-0.919,-0.102,-0.369,1.04,0.27,0.46
592099.375000,-0.919,-0.103,-0.369,1.31,0.52,0.15
592099.421000,-0.916,-0.097,-0.367,-0.09,0.34,-0.73
592099.468000,-0.919,-0.096,-0.367,-1.28,0.4,0.03
592099.515000,-0.921,-0.098,-0.37,-0.67,0.61,0.0
592099.562000,-0.92,-0.094,-0.37,-0.15,0.15,-0.43
592099.625000,-0.921,-0.093,-0.369,2.04,0.76,0.27
592099.671000,-0.925,-0.088,-0.362,3.75,0.37,1.28
592099.734000,-0.913,-0.097,-0.371,2.66,-0.85,1.56
592099.781000,-0.921,-0.103,-0.376,1.37,0.67,1.71
592099.828000,-0.921,-0.107,-0.379,0.82,1.16,0.89
592099.875000,-0.921,-0.101,-0.374,-0.95,2.75,-0.82
592099.921000,-0.919,-0.095,-0.367,-0.52,1.86,-0.58
592099.968000,-0.92,-0.092,-0.367,0.64,1.31,1.01
592100.015000,-0.914,-0.102,-0.368,-0.27,-0.18,0.58
592100.062000,-0.914,-0.097,-0.374,-0.34,0.27,0.58
592100.109000,-0.918,-0.102,-0.369,-1.07,1.22,0.73
592100.156000,-0.917,-0.103,-0.375,-1.8,0.64,-0.15
592100.203000,-0.916,-0.098,-0.378,-1.28,1.01,-0.58
592100.250000,-0.915,-0.096,-0.377,-0.46,0.82,-0.55
592100.296000,-0.916,-0.097,-0.372,-0.46,0.89,-0.27
592100.343000,-0.915,-0.097,-0.373,-1.16,0.58,-0.09
592100.390000,-0.916,-0.1,-0.372,-1.25,0.79,-0.27
592100.437000,-0.918,-0.098,-0.369,-0.55,1.19,-0.46
592100.484000,-0.919,-0.095,-0.368,-0.31,0.46,-0.43
592100.531000,-0.915,-0.094,-0.369,0.61,0.67,-0.18
592100.593000,-0.919,-0.092,-0.368,1.62,0.21,0.49
592100.640000,-0.917,-0.09,-0.371,1.62,-0.46,0.49
592100.687000,-0.917,-0.087,-0.377,2.44,-0.37,1.01
592100.734000,-0.916,-0.094,-0.377,3.08,-0.46,1.71
592100.781000,-0.919,-0.094,-0.375,4.09,0.09,1.83
592100.828000,-0.917,-0.099,-0.374,2.01,-0.09,1.62
592100.875000,-0.951,-0.083,-0.389,-3.51,7.42,0.09
592100.921000,-0.918,-0.103,-0.375,3.2,-0.92,2.78
592100.968000,-0.912,-0.104,-0.378,0.09,-0.55,0.61
592101.015000,-0.915,-0.097,-0.375,0.58,0.73,0.4
592101.062000,-0.923,-0.1,-0.373,-0.67,0.12,0.4
592101.109000,-0.914,-0.097,-0.372,-0.15,0.09,-0.55
592101.156000,-0.916,-0.092,-0.378,-0.73,0.03,-0.73
592101.203000,-0.919,-0.094,-0.374,0.12,1.07,0.4
592101.250000,-0.916,-0.094,-0.376,-0.15,0.37,-0.24
592101.296000,-0.917,-0.091,-0.378,-0.49,0.98,-0.12
592101.343000,-0.916,-0.096,-0.373,-0.4,1.19,0.34
592101.390000,-0.918,-0.097,-0.376,0.27,0.92,-0.06
592101.437000,-0.918,-0.092,-0.37,0.24,0.76,-0.73
592101.484000,-0.919,-0.091,-0.374,0.67,0.67,0.18
592101.531000,-0.916,-0.095,-0.377,0.24,0.03,-0.12
592101.578000,-0.917,-0.094,-0.379,-0.21,0.09,-0.31
592101.625000,-0.918,-0.099,-0.383,0.52,0.58,0.58
592101.671000,-0.914,-0.107,-0.386,2.72,1.53,0.82
592101.718000,-0.909,-0.092,-0.378,-3.36,3.42,-0.95
592101.765000,-0.916,-0.098,-0.375,-2.11,4.46,0.67
592101.828000,-0.927,-0.097,-0.363,-0.85,2.23,0.09
592101.875000,-0.913,-0.094,-0.374,1.16,-1.4,-1.62
592101.921000,-0.922,-0.09,-0.382,12.09,-1.8,0.95
592101.968000,-0.894,-0.098,-0.389,8.03,-4.36,0.37
592102.015000,-0.903,-0.098,-0.384,1.22,0.95,0.15
592102.062000,-0.919,-0.095,-0.393,-0.67,1.98,1.8
592102.109000,-0.897,-0.112,-0.424,-1.31,17.79,3.17
592102.156000,-0.874,-0.11,-0.456,7.63,30.88,4.33
592102.203000,-0.903,-0.106,-0.418,-1.83,36.47,2.04
592102.250000,-0.878,-0.109,-0.467,3.3,33.97,1.37
592102.296000,-0.891,-0.103,-0.438,1.01,26.92,-4.03
592102.343000,-0.846,-0.092,-0.497,4.24,28.38,-2.23
592102.390000,-0.868,-0.081,-0.47,-1.77,36.41,-4.52
592102.437000,-0.849,-0.09,-0.508,6.2,19.99,1.68
592102.484000,-0.848,-0.089,-0.517,-3.02,24.99,-0.55
592102.531000,-0.826,-0.095,-0.539,2.35,9.46,0.15
592102.578000,-0.82,-0.099,-0.555,0.34,5.98,-0.7
592102.625000,-0.818,-0.106,-0.559,1.31,5.07,0.52
592102.687000,-0.828,-0.108,-0.547,-1.98,-10.56,-0.21
592102.734000,-0.843,-0.115,-0.517,-10.96,-30.64,-4.46
592102.781000,-0.819,-0.099,-0.565,-7.54,-25.45,-0.79
592102.828000,-0.808,-0.111,-0.56,-2.96,8.97,-0.4
592102.875000,-0.855,-0.127,-0.49,3.94,7.93,0.24
592102.921000,-0.855,-0.143,-0.492,3.81,-14.68,-15.47
592102.968000,-0.872,-0.114,-0.487,-6.32,-28.26,-20.91
592103.015000,-0.89,-0.121,-0.448,-5.8,-50.66,-15.35
592103.062000,-0.866,-0.126,-0.482,-1.22,-46.39,-12.18
592103.109000,-0.862,-0.13,-0.47,-2.87,-26.15,-10.38
592103.156000,-0.872,-0.138,-0.444,-0.49,-8.18,-8.12
592103.203000,-0.893,-0.127,-0.421,0.85,-7.23,-5.25
592103.250000,-0.892,-0.135,-0.413,-4.33,-7.11,-3.57
592103.296000,-0.888,-0.135,-0.412,-1.8,-3.91,-0.31
592103.343000,-0.896,-0.139,-0.398,-3.02,2.11,2.38
592103.390000,-0.896,-0.148,-0.378,0.31,-0.43,3.54
592103.437000,-0.913,-0.141,-0.381,0.49,-0.92,2.99
592103.484000,-0.906,-0.156,-0.383,-3.33,-6.47,2.35
592103.531000,-0.895,-0.152,-0.408,-1.74,-3.97,2.04
592103.578000,-0.901,-0.156,-0.403,0.06,-0.64,2.47
592103.625000,-0.9,-0.152,-0.4,3.51,0.61,2.44
592103.671000,-0.9,-0.141,-0.391,4.7,2.29,1.59
592103.718000,-0.907,-0.134,-0.389,4.0,1.86,2.41
592103.765000,-0.904,-0.141,-0.383,3.81,1.16,3.14
592103.812000,-0.906,-0.143,-0.387,1.68,0.4,2.9
592103.859000,-0.901,-0.155,-0.391,3.6,-1.01,2.78
592103.906000,-0.906,-0.153,-0.389,-0.52,-0.67,0.55
592103.953000,-0.904,-0.153,-0.393,0.82,-1.04,-0.03
592104.000000,-0.902,-0.148,-0.398,-1.01,-0.49,-1.19
592104.046000,-0.904,-0.143,-0.397,-1.83,1.31,-1.4
592104.093000,-0.907,-0.138,-0.394,-1.46,1.28,-1.86
592104.140000,-0.905,-0.134,-0.395,-1.4,0.24,-1.8
592104.187000,-0.903,-0.128,-0.389,-2.2,1.16,-1.37
592104.234000,-0.905,-0.134,-0.389,-2.2,0.67,-0.21
592104.281000,-0.908,-0.139,-0.386,-1.89,0.4,0.06
592104.328000,-0.904,-0.142,-0.385,-1.53,-0.18,-0.24
592104.375000,-0.907,-0.136,-0.382,-1.74,0.15,-0.27
592104.421000,-0.908,-0.14,-0.385,-2.75,-0.82,0.64
592104.484000,-0.902,-0.144,-0.394,-2.99,-1.19,0.09
592104.531000,-0.901,-0.141,-0.402,-3.36,-0.46,-1.5
592104.578000,-0.909,-0.128,-0.395,-2.32,1.68,-0.52
592104.625000,-0.902,-0.134,-0.395,-3.78,-0.64,-0.46
592104.671000,-0.899,-0.129,-0.399,-4.06,0.4,-0.92
592104.718000,-0.908,-0.137,-0.391,-1.71,1.13,0.46
592104.765000,-0.909,-0.142,-0.383,-1.22,0.49,-1.1
592104.812000,-0.903,-0.133,-0.384,-0.27,-0.31,-1.71
592104.859000,-0.907,-0.122,-0.39,-0.06,0.15,-0.49
592104.906000,-0.905,-0.132,-0.388,-0.12,-0.95,0.46
592104.953000,-0.903,-0.13,-0.396,-0.7,-1.95,-0.43
592105.000000,-0.906,-0.132,-0.396,1.28,0.15,1.25
592105.046000,-0.91,-0.137,-0.388,2.04,0.67,1.43
592105.093000,-0.906,-0.132,-0.388,2.23,0.7,0.92
592105.140000,-0.904,-0.132,-0.386,1.95,0.95,1.56
592105.187000,-0.906,-0.139,-0.386,1.01,0.46,1.65
592105.234000,-0.907,-0.14,-0.39,0.7,-0.06,1.28
592105.281000,-0.906,-0.143,-0.395,-1.16,0.73,0.95
592105.328000,-0.903,-0.146,-0.388,-1.68,0.67,0.43
592105.375000,-0.902,-0.147,-0.39,-2.87,0.09,-0.49
592105.421000,-0.903,-0.145,-0.387,-2.72,0.37,-1.01
592105.468000,-0.906,-0.142,-0.387,-4.36,0.4,-2.29
592105.515000,-0.908,-0.134,-0.385,-3.6,0.0,-2.72
592105.562000,-0.909,-0.125,-0.392,-3.72,-0.64,-2.81
592105.609000,-0.908,-0.12,-0.395,-4.85,-0.76,-2.32
592105.656000,-0.909,-0.115,-0.396,-3.91,-0.21,-1.28
592105.703000,-0.904,-0.119,-0.401,-4.33,-0.49,-0.18
592105.750000,-0.909,-0.129,-0.396,-2.99,1.56,0.89
592105.796000,-0.911,-0.135,-0.391,-2.87,1.1,0.03
592105.843000,-0.909,-0.126,-0.394,-2.53,0.79,-0.92
592105.890000,-0.906,-0.126,-0.391,-4.09,1.46,0.55
592105.937000,-0.9,-0.134,-0.399,-3.85,1.46,0.18
592105.984000,-0.907,-0.129,-0.389,-2.9,2.08,-0.52
592106.031000,-0.903,-0.13,-0.393,-3.17,1.1,-0.95
592106.078000,-0.898,-0.132,-0.393,-2.81,0.92,-1.59
592106.125000,-0.907,-0.128,-0.399,0.18,1.71,-1.34
592106.187000,-0.91,-0.129,-0.39,1.65,1.92,-1.01
592106.234000,-0.9,-0.122,-0.397,0.31,0.0,-2.93
592106.281000,-0.901,-0.115,-0.401,-0.27,1.19,-1.8
592106.328000,-0.901,-0.12,-0.397,-0.64,0.82,-0.43
592106.375000,-0.899,-0.124,-0.395,-0.67,0.64,-0.4
592106.421000,-0.902,-0.122,-0.395,-0.18,0.46,-0.15
592106.468000,-0.9,-0.125,-0.39,1.4,-0.15,0.43
592106.515000,-0.899,-0.129,-0.392,0.67,-0.61,0.31
592106.562000,-0.9,-0.128,-0.392,1.25,-1.04,0.64
592106.609000,-0.901,-0.13,-0.394,-0.31,-1.46,1.07
592106.656000,-0.902,-0.142,-0.401,0.79,-1.77,1.37
592106.703000,-0.903,-0.144,-0.4,0.79,-1.04,0.15
592106.750000,-0.902,-0.135,-0.391,-0.79,-0.95,-1.25
592106.796000,-0.903,-0.137,-0.387,-2.93,-1.1,-1.04
592106.843000,-0.903,-0.142,-0.385,-3.94,-1.62,-1.1
592106.890000,-0.909,-0.14,-0.39,-6.5,-1.77,-1.43
592106.937000,-0.908,-0.141,-0.392,-6.41,-1.16,-2.29
592106.984000,-0.912,-0.133,-0.394,-5.1,-0.92,-3.11
592107.031000,-0.906,-0.128,-0.398,-3.91,-1.53,-3.02
592107.078000,-0.897,-0.122,-0.401,-2.29,0.0,-2.29
592107.125000,-0.906,-0.129,-0.387,-1.8,1.37,-0.7
592107.171000,-0.914,-0.133,-0.378,-2.35,1.31,-0.98
592107.218000,-0.908,-0.137,-0.375,-2.23,0.03,-1.25
592107.265000,-0.913,-0.133,-0.372,-1.86,-0.31,-1.31
592107.312000,-0.912,-0.132,-0.377,-0.46,-1.07,-1.28
592107.359000,-0.909,-0.127,-0.388,0.73,-1.65,-1.37
592107.421000,-0.911,-0.122,-0.395,2.56,-1.34,0.12
592107.468000,-0.907,-0.128,-0.403,1.46,-0.7,0.7
592107.515000,-0.902,-0.133,-0.41,0.76,0.7,-0.18
592107.562000,-0.904,-0.139,-0.393,2.35,2.99,0.55
592107.609000,-0.919,-0.155,-0.391,3.45,2.11,0.15
592107.656000,-0.923,-0.215,-0.383,10.44,-3.05,-0.7
592107.703000,-0.93,-0.274,-0.379,38.58,-6.23,1.04
592107.750000,-0.931,-0.327,-0.373,86.98,-15.32,2.81
592107.796000,-0.942,-0.257,-0.349,100.68,-10.9,-9.98
592107.843000,-0.899,-0.209,-0.326,72.08,-2.35,-20.08
592107.890000,-0.907,-0.188,-0.287,32.47,-1.92,-24.17
592107.937000,-0.943,-0.269,-0.25,13.06,-3.69,-21.18
592107.984000,-1.038,-0.504,-0.192,64.21,-21.64,-12.73
592108.031000,-1.072,-0.535,-0.193,117.89,-50.39,-37.66
592108.078000,-1.027,-0.502,-0.132,149.6,-84.93,-38.85
592108.125000,-0.886,-0.449,-0.098,148.87,-89.42,-45.17
592108.171000,-0.867,-0.449,0.035,141.24,-73.92,-31.56
592108.218000,-0.898,-0.408,0.154,110.51,-62.56,-27.86
592108.265000,-0.813,-0.326,0.162,71.87,-56.25,-26.46
592108.312000,-0.796,-0.308,0.203,38.51,-43.92,-15.38
592108.359000,-0.784,-0.379,0.284,36.01,-21.33,10.25
592108.406000,-0.775,-0.393,0.253,45.72,-9.92,15.32
592108.468000,-0.793,-0.412,0.312,22.92,3.23,9.58
592108.515000,-0.775,-0.419,0.254,-14.71,8.42,1.95
592108.562000,-0.775,-0.4,0.23,-39.12,26.95,-1.25
592108.609000,-0.81,-0.399,0.195,-86.7,43.49,-8.45
592108.656000,-0.83,-0.402,0.154,-137.24,58.5,-1.92
592108.703000,-0.852,-0.452,0.162,-142.55,54.51,-5.92
592108.750000,-0.963,-0.454,-0.012,-91.98,65.8,26.18
592108.796000,-0.87,-0.453,-0.038,-98.18,47.7,22.37
592108.843000,-0.848,-0.417,-0.199,-162.82,65.49,2.5
592108.890000,-0.921,-0.401,-0.215,-230.51,77.39,-13.31
592108.937000,-0.981,-0.431,-0.177,-135.5,23.99,36.32
592108.984000,-0.898,-0.341,-0.351,-104.89,-18.89,43.24
592109.031000,-0.884,-0.255,-0.419,-100.8,-13.55,41.72
592109.078000,-0.928,-0.186,-0.417,-105.59,7.81,46.91
592109.125000,-0.989,-0.18,-0.404,-67.45,2.99,64.0
592109.171000,-0.999,-0.204,-0.419,-36.26,-8.06,66.32
592109.218000,-1.041,-0.19,-0.516,-58.11,29.76,28.11
592109.265000,-0.929,-0.188,-0.432,3.51,-2.04,18.46
592109.312000,-0.91,-0.13,-0.446,17.58,1.1,7.39
592109.359000,-0.897,-0.1,-0.419,18.98,2.17,0.98
592109.406000,-0.906,-0.093,-0.402,30.0,1.53,4.18
592109.453000,-0.904,-0.101,-0.405,33.27,1.89,3.85
592109.500000,-0.913,-0.087,-0.39,16.91,1.07,-8.42
592109.546000,-0.92,-0.073,-0.391,10.47,0.27,-12.21
592109.593000,-0.922,-0.063,-0.4,0.79,-2.84,-16.21
592109.640000,-0.901,-0.067,-0.403,-8.18,-2.99,-19.26
592109.687000,-0.902,-0.056,-0.403,-6.78,-2.08,-19.47
592109.734000,-0.894,-0.045,-0.398,-5.16,-3.11,-15.23
592109.781000,-0.889,-0.04,-0.399,-3.33,-3.48,-6.26
592109.828000,-0.897,-0.048,-0.393,-0.03,-3.66,1.28
592109.875000,-0.908,-0.067,-0.384,4.76,-5.86,8.55
592109.921000,-0.91,-0.082,-0.388,6.81,-7.23,10.53
592109.968000,-0.911,-0.096,-0.39,4.7,-7.45,9.89
592110.015000,-0.913,-0.104,-0.393,1.07,-5.98,7.57
592110.062000,-0.917,-0.112,-0.389,-2.47,-3.66,5.95
592110.109000,-0.917,-0.117,-0.391,-5.04,-1.59,2.99
592110.156000,-0.924,-0.113,-0.384,-10.93,0.4,-1.65
592110.203000,-0.922,-0.11,-0.38,-12.82,1.19,-4.33
592110.250000,-0.922,-0.091,-0.374,-14.98,2.84,-7.87
592110.296000,-0.918,-0.082,-0.374,-17.94,1.77,-8.7
592110.343000,-0.918,-0.081,-0.376,-17.15,1.28,-7.97
592110.390000,-0.92,-0.077,-0.373,-15.93,1.43,-7.81
592110.437000,-0.917,-0.073,-0.376,-14.86,-0.18,-8.09
592110.484000,-0.916,-0.063,-0.376,-12.18,-0.27,-6.23
592110.531000,-0.911,-0.067,-0.377,-12.3,-2.32,-4.67
592110.578000,-0.908,-0.073,-0.385,-13.73,-2.32,-3.6
592110.640000,-0.917,-0.079,-0.394,-15.66,-2.08,-4.27
592110.687000,-0.916,-0.084,-0.391,-14.56,0.7,-5.04
592110.734000,-0.92,-0.073,-0.381,-11.75,2.53,-6.65
592110.781000,-0.922,-0.069,-0.368,-7.66,1.77,-5.13
592110.828000,-0.916,-0.064,-0.372,-6.29,0.0,-5.49
592110.875000,-0.918,-0.055,-0.367,-7.9,0.21,-5.19
592110.921000,-0.922,-0.056,-0.363,-7.48,-0.95,-3.39
592110.968000,-0.918,-0.058,-0.376,-8.21,-2.69,-2.23
592111.015000,-0.918,-0.059,-0.386,-6.84,-2.11,-1.37
592111.062000,-0.916,-0.061,-0.387,-4.3,-1.53,0.15
592111.109000,-0.913,-0.072,-0.383,-2.32,-2.38,1.22
592111.156000,-0.913,-0.078,-0.38,-3.72,-0.85,1.22
592111.203000,-0.918,-0.085,-0.373,-6.23,-0.95,0.89
592111.250000,-0.917,-0.094,-0.373,-8.85,-1.53,-0.34
592111.296000,-0.928,-0.095,-0.372,-9.52,-0.18,-2.9
592111.343000,-0.929,-0.084,-0.374,-13.12,-0.34,-6.56
592111.390000,-0.915,-0.072,-0.377,-12.48,-1.19,-7.57
592111.437000,-0.914,-0.06,-0.375,-11.69,-0.89,-6.65
592111.484000,-0.913,-0.063,-0.369,-12.85,-2.87,-3.72
592111.531000,-0.917,-0.072,-0.371,-14.86,-3.48,-2.81
592111.578000,-0.925,-0.08,-0.371,-20.81,-2.56,-4.12
592111.625000,-0.927,-0.088,-0.37,-21.12,-1.89,-5.62
592111.671000,-0.926,-0.084,-0.364,-18.95,-1.22,-8.67
592111.734000,-0.931,-0.064,-0.364,-12.02,-0.7,-10.16
592111.781000,-0.924,-0.049,-0.354,-9.31,-1.13,-9.22
592111.828000,-0.913,-0.035,-0.362,-9.55,-2.62,-7.93
592111.875000,-0.921,-0.042,-0.359,-10.93,-3.3,-4.0
592111.937000,-0.925,-0.059,-0.364,-10.07,-3.94,-1.95
592111.984000,-0.927,-0.068,-0.368,-9.09,-2.44,-3.08
592112.046000,-0.928,-0.063,-0.365,-7.72,-1.43,-2.93
592112.093000,-0.924,-0.068,-0.36,-5.89,-1.04,-2.38
592112.140000,-0.927,-0.062,-0.354,-5.92,-0.7,-2.35
592112.187000,-0.926,-0.065,-0.348,-6.9,-1.98,-1.1
592112.234000,-0.926,-0.072,-0.351,-10.04,-2.47,-0.7
592112.281000,-0.932,-0.079,-0.351,-12.18,-2.62,-0.34
592112.328000,-0.924,-0.075,-0.368,-17.18,0.03,-3.94
592112.375000,-0.931,-0.068,-0.357,-19.53,2.44,-6.87
592112.421000,-0.931,-0.046,-0.358,-14.8,1.59,-6.01
592112.468000,-0.927,-0.028,-0.359,-16.39,2.2,-4.18
592112.515000,-0.929,-0.048,-0.344,-21.27,0.58,-2.01
592112.562000,-0.924,-0.073,-0.353,-17.09,-2.26,-0.31
592112.609000,-0.927,-0.081,-0.357,-15.32,-1.89,-1.77
592112.656000,-0.928,-0.085,-0.355,-13.86,-1.77,-3.91
592112.703000,-0.918,-0.082,-0.366,-17.88,0.31,-9.49
592112.750000,-0.928,-0.054,-0.36,-18.68,3.57,-11.63
592112.796000,-0.929,-0.037,-0.355,-16.75,2.9,-11.35
592112.843000,-0.933,-0.019,-0.355,-16.39,2.11,-10.04
592112.890000,-0.929,-0.034,-0.362,-11.75,2.29,-6.2
592112.937000,-0.928,-0.035,-0.353,-6.68,2.5,-6.87
592112.984000,-0.927,-0.011,-0.366,-5.55,1.53,-7.84
592113.031000,-0.932,-0.013,-0.362,-1.62,1.92,-5.52
592113.078000,-0.938,-0.016,-0.371,1.37,1.59,-2.2
592113.125000,-0.907,-0.038,-0.379,11.84,1.25,1.22
592113.171000,-0.911,-0.041,-0.356,19.56,3.2,-0.73
592113.218000,-0.93,-0.026,-0.349,24.38,2.44,3.75
592113.265000,-0.942,-0.024,-0.341,22.52,1.13,8.36
592113.312000,-0.924,-0.066,-0.353,21.0,-4.55,12.27
592113.359000,-0.918,-0.084,-0.366,21.76,-3.51,11.51
592113.406000,-0.914,-0.092,-0.364,24.63,-2.26,12.24
592113.453000,-0.914,-0.104,-0.361,29.33,-3.3,14.68
592113.500000,-0.925,-0.111,-0.358,30.12,0.21,12.3
592113.546000,-0.927,-0.115,-0.352,26.43,0.58,9.83
592113.593000,-0.933,-0.096,-0.342,14.74,1.25,4.21
592113.656000,-0.925,-0.103,-0.346,13.21,1.34,2.5
592113.703000,-0.927,-0.079,-0.35,11.02,4.27,-1.16
592113.750000,-0.936,-0.06,-0.35,11.51,5.46,-1.56
592113.796000,-0.933,-0.041,-0.34,18.22,3.05,2.69
592113.843000,-0.927,-0.052,-0.356,25.82,0.03,9.61
592113.890000,-0.926,-0.091,-0.369,33.72,0.4,15.63
592113.937000,-0.925,-0.114,-0.357,32.99,0.4,15.14
592113.984000,-0.925,-0.112,-0.358,20.84,3.27,9.61
592114.031000,-0.93,-0.11,-0.346,13.12,4.33,5.89
592114.078000,-0.921,-0.092,-0.356,5.19,5.4,0.64
592114.125000,-0.932,-0.057,-0.359,2.35,7.11,0.06
592114.171000,-0.924,-0.063,-0.351,2.44,6.16,2.23
592114.218000,-0.924,-0.063,-0.356,15.35,4.27,7.35
592114.265000,-0.925,-0.07,-0.357,25.54,1.89,12.24
592114.312000,-0.924,-0.08,-0.356,24.29,1.07,12.51
592114.359000,-0.927,-0.095,-0.351,21.76,1.46,12.15
592114.406000,-0.929,-0.097,-0.358,19.5,-0.15,8.79
592114.453000,-0.92,-0.108,-0.358,21.79,1.5,5.98
592114.500000,-0.925,-0.096,-0.355,24.26,1.74,6.93
592114.546000,-0.927,-0.083,-0.359,25.12,2.23,9.19
592114.593000,-0.928,-0.088,-0.35,20.54,3.02,10.56
592114.640000,-0.926,-0.095,-0.35,18.28,2.26,10.9
592114.687000,-0.921,-0.101,-0.355,18.98,1.25,10.47
592114.734000,-0.924,-0.096,-0.357,19.14,1.98,9.74
592114.781000,-0.924,-0.09,-0.348,18.68,4.18,8.7
592114.828000,-0.929,-0.076,-0.346,19.5,4.15,8.12
592114.875000,-0.93,-0.069,-0.356,22.52,2.23,10.04
592114.921000,-0.93,-0.067,-0.372,28.02,2.29,11.9
592114.968000,-0.924,-0.067,-0.383,31.8,2.93,13.67
592115.015000,-0.92,-0.069,-0.381,32.5,5.89,15.08
592115.062000,-0.926,-0.075,-0.374,33.39,5.83,16.24
592115.109000,-0.922,-0.079,-0.375,29.15,5.74,15.81
592115.156000,-0.924,-0.086,-0.372,25.09,5.46,14.92
592115.203000,-0.918,-0.092,-0.385,22.55,5.04,12.36
592115.250000,-0.909,-0.072,-0.374,15.53,5.07,10.16
592115.296000,-0.908,-0.068,-0.382,12.42,6.26,10.13
592115.343000,-0.927,-0.056,-0.366,13.4,6.26,9.4
592115.390000,-0.916,-0.058,-0.383,19.07,2.69,11.84
592115.437000,-0.91,-0.08,-0.397,27.65,1.5,13.52
592115.484000,-0.905,-0.073,-0.389,36.23,1.8,12.57
592115.531000,-0.906,-0.068,-0.387,31.98,1.95,10.59
592115.578000,-0.912,-0.063,-0.383,23.26,4.15,6.38
592115.625000,-0.918,-0.041,-0.378,19.75,6.56,3.3
592115.671000,-0.919,-0.031,-0.393,21.12,4.82,7.72
592115.718000,-0.913,-0.058,-0.38,39.46,1.92,16.05
592115.765000,-0.912,-0.077,-0.4,40.96,0.24,19.32
592115.812000,-0.903,-0.104,-0.386,34.49,1.65,14.25
592115.859000,-0.902,-0.125,-0.38,26.64,-1.8,10.35
592115.906000,-0.901,-0.101,-0.404,30.46,2.11,5.37
592115.953000,-0.926,-0.082,-0.368,21.21,4.46,5.4
592116.000000,-0.91,-0.085,-0.389,15.23,0.43,3.57
592116.046000,-0.912,-0.075,-0.378,0.34,3.91,0.27
592116.093000,-0.923,-0.087,-0.37,3.14,3.88,1.01
592116.140000,-0.931,-0.078,-0.344,21.64,1.92,5.68
592116.187000,-0.923,-0.063,-0.356,31.95,-4.82,8.58
592116.234000,-0.913,-0.062,-0.386,27.86,-6.81,9.67
592116.281000,-0.915,-0.081,-0.391,28.14,-6.68,12.79
592116.328000,-0.918,-0.091,-0.403,28.63,-4.0,13.28
592116.375000,-0.938,-0.067,-0.368,16.3,5.77,6.01
592116.421000,-0.94,-0.042,-0.363,16.69,5.89,7.35
592116.468000,-0.934,-0.046,-0.359,17.79,4.64,14.37
592116.515000,-0.924,-0.068,-0.363,17.33,3.63,16.94
592116.562000,-0.929,-0.086,-0.37,16.97,4.55,16.54
592116.609000,-0.934,-0.095,-0.344,22.92,4.52,17.55
592116.656000,-0.926,-0.104,-0.356,28.23,-1.13,20.84
592116.703000,-0.932,-0.15,-0.359,27.13,-1.65,20.51
592116.750000,-0.92,-0.151,-0.376,16.69,-1.62,12.63
592116.796000,-0.918,-0.132,-0.354,7.6,2.01,1.46
592116.843000,-0.907,-0.083,-0.361,2.59,-1.16,-2.9
592116.890000,-0.914,-0.069,-0.361,-6.13,-0.73,-5.16
592116.937000,-0.916,-0.065,-0.356,-4.97,-0.64,-2.78
592116.984000,-0.915,-0.05,-0.388,-4.7,-2.75,-3.02
592117.031000,-0.923,-0.053,-0.374,-8.51,-0.55,-2.62
592117.078000,-0.914,-0.046,-0.392,-8.97,-0.09,-2.47
592117.125000,-0.912,-0.036,-0.434,-21.27,26.22,-1.98
592117.171000,-0.949,-0.043,-0.349,-19.38,22.49,-2.44
592117.218000,-0.926,-0.044,-0.358,-7.42,2.66,2.04
592117.265000,-0.905,-0.065,-0.389,-1.19,-5.83,1.56
592117.312000,-0.905,-0.061,-0.38,-0.46,3.27,-2.84
592117.359000,-0.886,-0.055,-0.382,-13.67,11.96,-9.31
592117.406000,-0.882,-0.046,-0.422,-22.64,11.63,-11.93
592117.453000,-0.962,-0.026,-0.392,-17.06,16.05,-12.42
592117.500000,-0.992,-0.012,-0.375,7.87,11.9,-2.72
592117.546000,-0.902,-0.004,-0.369,6.9,1.98,1.43
592117.593000,-0.869,-0.005,-0.405,-2.53,-13.15,1.19
592117.640000,-0.878,-0.096,-0.414,14.74,-23.59,17.79
592117.687000,-0.889,-0.15,-0.444,33.78,-22.89,24.54
592117.734000,-0.887,-0.166,-0.453,19.62,-20.48,14.92
592117.781000,-0.865,-0.204,-0.51,7.26,-16.54,5.58
592117.828000,-0.887,-0.177,-0.465,-21.09,4.39,-9.77
592117.875000,-0.909,-0.151,-0.397,-42.66,4.67,-21.52
592117.937000,-0.898,-0.124,-0.393,-67.78,9.98,-29.6
592117.984000,-0.919,-0.109,-0.36,-78.16,15.17,-38.24
592118.031000,-0.924,-0.075,-0.339,-68.03,11.69,-39.7
592118.078000,-0.949,-0.005,-0.341,-44.34,2.5,-34.76
592118.125000,-0.936,-0.003,-0.33,-35.0,-14.19,-23.44
592118.171000,-0.915,-0.001,-0.404,-29.73,-16.91,-17.79
592118.218000,-0.93,-0.024,-0.386,-37.72,-4.76,-17.88
592118.265000,-0.934,-0.047,-0.358,-20.45,-4.03,-14.92
592118.312000,-0.925,-0.016,-0.386,-18.74,-5.83,-15.38
592118.359000,-0.906,-0.026,-0.369,-19.65,-4.79,-9.43
592118.406000,-0.905,-0.041,-0.393,-12.91,-8.51,-2.41
592118.453000,-0.914,-0.071,-0.387,-13.73,-5.01,0.73
592118.500000,-0.914,-0.082,-0.378,-18.83,-3.6,-0.67
592118.546000,-0.912,-0.09,-0.387,-24.35,-3.08,-3.81
592118.593000,-0.922,-0.096,-0.386,-27.19,0.7,-5.43
592118.640000,-0.937,-0.095,-0.37,-22.06,5.71,-8.0
592118.687000,-0.933,-0.093,-0.357,-16.94,5.31,-12.42
592118.734000,-0.939,-0.05,-0.345,-5.07,3.88,-13.64
592118.781000,-0.939,-0.016,-0.337,-0.79,0.03,-7.69
592118.828000,-0.934,-0.028,-0.37,-20.48,-3.72,-6.23
592118.875000,-0.929,-0.056,-0.384,-30.55,-4.97,-10.62
592118.921000,-0.899,-0.034,-0.424,-25.42,1.68,-14.71
592118.968000,-0.913,-0.037,-0.382,0.12,3.72,-6.93
592119.015000,-0.915,-0.02,-0.41,14.44,2.69,0.49
592119.062000,-0.903,-0.043,-0.41,11.35,3.54,2.99
592119.109000,-0.89,-0.051,-0.389,11.26,4.49,9.43
592119.156000,-0.892,-0.072,-0.396,-12.12,2.72,6.99
592119.203000,-0.906,-0.089,-0.391,-24.51,3.05,2.96
592119.250000,-0.919,-0.101,-0.385,-15.66,2.81,3.36
592119.296000,-0.926,-0.1,-0.38,-7.69,1.31,0.79
592119.343000,-0.921,-0.087,-0.378,-7.69,-0.15,-4.97
592119.390000,-0.912,-0.071,-0.379,-6.07,-0.85,-6.47
592119.437000,-0.912,-0.06,-0.378,-7.26,-1.89,-7.2
592119.484000,-0.912,-0.058,-0.381,-8.0,-3.42,-6.23
592119.531000,-0.905,-0.055,-0.391,-8.51,-4.39,-6.56
592119.578000,-0.911,-0.051,-0.398,-9.37,-2.41,-6.35
592119.625000,-0.928,-0.049,-0.397,-7.35,-1.95,-5.43
592119.671000,-0.901,-0.052,-0.392,-8.0,-2.56,-5.31
592119.718000,-0.892,-0.045,-0.394,-9.74,-1.37,-5.65
592119.765000,-0.897,-0.049,-0.388,-9.22,2.01,-1.34
592119.812000,-0.924,-0.057,-0.368,-8.76,3.85,1.74
592119.859000,-0.941,-0.068,-0.349,-10.83,0.82,3.36
592119.906000,-0.924,-0.086,-0.36,-18.62,-4.15,0.31
592119.953000,-0.923,-0.09,-0.368,-19.38,-2.5,-2.87
592120.000000,-0.926,-0.096,-0.354,-8.64,-2.29,-6.29
592120.046000,-0.937,-0.06,-0.378,2.17,-2.96,-10.65
592120.093000,-0.939,-0.039,-0.37,6.84,-1.65,-10.86
592120.140000,-0.921,-0.006,-0.366,5.83,-3.72,-7.93
592120.187000,-0.91,-0.015,-0.384,-2.59,-4.88,-2.29
592120.234000,-0.913,-0.052,-0.4,-4.39,-4.97,2.47
592120.281000,-0.912,-0.073,-0.415,1.13,-1.28,4.21
592120.328000,-0.915,-0.078,-0.402,2.53,3.08,3.36
592120.375000,-0.922,-0.065,-0.385,3.57,6.26,2.59
592120.421000,-0.919,-0.065,-0.36,-6.32,5.16,-0.15
592120.468000,-0.926,-0.064,-0.36,-3.63,3.91,0.82
592120.515000,-0.93,-0.073,-0.357,-1.43,2.23,1.19
592120.578000,-0.919,-0.064,-0.363,0.18,0.18,-1.1
592120.625000,-0.918,-0.057,-0.37,4.39,-0.7,0.4
592120.671000,-0.917,-0.062,-0.366,1.89,-1.56,1.5
592120.718000,-0.913,-0.071,-0.38,0.27,-3.69,1.04
592120.765000,-0.916,-0.072,-0.386,0.31,-1.8,1.4
592120.812000,-0.912,-0.078,-0.386,-0.55,-0.58,0.18
592120.859000,-0.918,-0.069,-0.378,-1.83,1.4,-1.16
592120.921000,-0.923,-0.068,-0.368,-5.4,0.49,-1.83
592120.968000,-0.926,-0.074,-0.365,-5.28,0.12,-2.14
592121.015000,-0.922,-0.067,-0.373,-5.98,-1.43,-3.39
592121.062000,-0.922,-0.064,-0.378,-7.02,-0.67,-3.27
592121.109000,-0.923,-0.059,-0.378,-7.87,-1.34,-3.02
592121.156000,-0.924,-0.066,-0.377,-7.72,-1.13,-1.89
592121.203000,-0.919,-0.068,-0.375,-10.99,-2.17,-3.02
592121.250000,-0.913,-0.07,-0.382,-16.05,-1.4,-4.55
592121.296000,-0.919,-0.066,-0.375,-19.07,0.61,-5.92
592121.343000,-0.92,-0.061,-0.37,-20.29,0.34,-7.48
592121.390000,-0.926,-0.053,-0.373,-19.1,-0.12,-8.27
592121.437000,-0.925,-0.041,-0.37,-14.77,0.21,-6.96
592121.484000,-0.923,-0.04,-0.36,-11.41,-0.55,-6.93
592121.531000,-0.926,-0.04,-0.367,-8.88,-1.86,-4.3
592121.578000,-0.93,-0.048,-0.371,-5.34,-2.9,-1.13
592121.625000,-0.914,-0.052,-0.385,-10.47,-3.02,-1.71
592121.671000,-0.923,-0.065,-0.367,-18.52,0.89,-3.97
592121.718000,-0.924,-0.067,-0.364,-17.37,-0.34,-3.78
592121.765000,-0.913,-0.068,-0.358,-16.33,0.55,-5.4
592121.812000,-0.924,-0.051,-0.352,-15.32,-0.15,-5.98
592121.859000,-0.939,-0.063,-0.354,-13.92,0.27,-4.88
592121.921000,-0.924,-0.055,-0.361,-12.63,-2.04,-6.9
592121.984000,-0.927,-0.04,-0.361,-9.98,-0.67,-6.44
592122.031000,-0.921,-0.033,-0.368,-10.8,-1.92,-5.58
592122.078000,-0.919,-0.039,-0.373,-9.25,-1.71,-2.81
592122.125000,-0.917,-0.042,-0.362,-13.37,-0.95,-3.2
592122.171000,-0.923,-0.043,-0.37,-17.24,-0.52,-2.47
592122.218000,-0.934,-0.064,-0.365,-17.98,-0.15,-2.29
592122.265000,-0.929,-0.065,-0.374,-15.23,0.34,-4.61
592122.312000,-0.916,-0.054,-0.372,-14.89,0.37,-6.38
592122.375000,-0.921,-0.043,-0.366,-15.29,2.11,-6.29
592122.421000,-0.922,-0.054,-0.356,-13.73,1.19,-6.1
592122.468000,-0.929,-0.036,-0.356,-13.18,0.98,-6.5
592122.515000,-0.928,-0.049,-0.356,-11.99,1.34,-5.65
592122.562000,-0.938,-0.043,-0.366,-6.04,0.89,-6.74
592122.609000,-0.939,-0.04,-0.361,0.46,-0.55,-6.23
592122.671000,-0.911,0.0,-0.37,-1.43,0.09,-5.86
592122.718000,-0.919,-0.009,-0.361,-2.93,-0.52,1.04
592122.765000,-0.927,-0.04,-0.376,-4.21,-2.08,2.69
592122.812000,-0.935,-0.054,-0.374,-6.81,-0.64,1.28
592122.859000,-0.927,-0.058,-0.376,-6.32,0.15,-0.37
592122.921000,-0.926,-0.047,-0.371,-3.97,2.14,-1.98
592122.968000,-0.928,-0.029,-0.362,0.27,2.5,-1.74
592123.015000,-0.918,-0.019,-0.36,1.34,1.13,-0.31
592123.062000,-0.91,-0.029,-0.36,3.54,1.31,2.84
592123.109000,-0.93,-0.033,-0.376,10.8,2.23,5.19
592123.156000,-0.928,-0.051,-0.359,5.58,1.37,4.33
592123.203000,-0.907,-0.063,-0.369,11.44,-0.03,3.17
592123.250000,-0.918,-0.039,-0.389,12.88,0.67,4.61
592123.296000,-0.918,-0.069,-0.395,7.72,-0.15,7.2
592123.343000,-0.928,-0.054,-0.383,-9.55,5.01,0.64
592123.390000,-0.916,-0.085,-0.378,-9.61,2.62,-1.16
592123.437000,-0.922,-0.073,-0.379,-3.66,4.52,-4.21
592123.484000,-0.931,-0.05,-0.374,2.78,2.32,-3.45
592123.531000,-0.898,-0.035,-0.358,2.53,2.23,-5.01
592123.578000,-0.902,-0.016,-0.365,-8.58,0.67,-4.61
592123.625000,-0.938,-0.047,-0.355,-9.31,2.2,2.75
592123.671000,-0.944,-0.07,-0.358,-9.98,-2.35,2.44
592123.718000,-0.919,-0.079,-0.384,-7.87,-4.76,-2.69
592123.765000,-0.929,-0.036,-0.39,-6.53,1.13,-8.06
592123.812000,-0.938,0.005,-0.375,-8.12,-1.43,-8.64
592123.859000,-0.903,0.018,-0.404,-13.64,-3.75,-5.98
592123.906000,-0.906,0.011,-0.402,-15.66,-0.58,-0.15
592123.953000,-0.912,-0.025,-0.386,-14.47,2.35,2.62
592124.000000,-0.924,-0.032,-0.363,-2.47,0.98,4.67
592124.046000,-0.92,-0.035,-0.364,-2.44,-1.62,3.88
592124.093000,-0.923,-0.049,-0.36,0.73,-2.78,4.73
592124.140000,-0.917,-0.053,-0.368,-12.63,-4.12,1.25
592124.187000,-0.918,-0.064,-0.368,-16.33,-4.58,-0.55
592124.234000,-0.937,-0.068,-0.368,-16.08,-3.39,-3.42
592124.281000,-0.927,-0.056,-0.379,-17.24,-1.22,-8.42
592124.328000,-0.931,-0.041,-0.361,-13.06,2.29,-11.05
592124.375000,-0.935,-0.008,-0.354,-4.88,-0.09,-10.56
592124.421000,-0.928,0.006,-0.356,-5.13,-0.4,-8.18
592124.468000,-0.92,0.007,-0.348,-6.68,-0.34,-5.46
592124.515000,-0.926,-0.01,-0.353,-3.91,-3.85,0.31
592124.562000,-0.925,-0.033,-0.365,-5.62,-4.82,1.22
592124.609000,-0.926,-0.046,-0.361,-8.18,-1.89,-0.67
592124.656000,-0.921,-0.062,-0.36,-9.4,-2.29,-2.84
592124.703000,-0.922,-0.064,-0.373,-9.46,-0.46,-4.24
592124.750000,-0.942,-0.055,-0.349,-9.64,3.51,-6.5
592124.796000,-0.936,-0.046,-0.346,-17.4,1.8,-9.43
592124.843000,-0.941,-0.047,-0.353,-13.64,2.38,-10.01
592124.890000,-0.929,-0.024,-0.356,-10.74,0.7,-10.99
592124.937000,-0.914,-0.005,-0.38,-13.46,-0.27,-11.11
592124.984000,-0.919,-0.004,-0.377,-14.1,3.02,-5.37
592125.031000,-0.924,-0.02,-0.37,-10.41,3.91,-2.41
592125.078000,-0.932,-0.036,-0.358,-4.85,4.36,-1.25
592125.125000,-0.927,-0.034,-0.351,-2.53,1.53,-1.59
592125.171000,-0.918,-0.031,-0.355,-4.3,1.1,-2.84
592125.218000,-0.927,-0.037,-0.363,2.62,1.43,-0.98
592125.265000,-0.925,-0.03,-0.36,8.09,1.98,-0.76
592125.312000,-0.923,-0.025,-0.358,9.74,1.37,-0.18
592125.359000,-0.924,-0.018,-0.36,12.39,1.98,1.5
592125.406000,-0.929,-0.021,-0.36,16.69,1.01,3.14
592125.453000,-0.927,-0.012,-0.369,18.13,-0.21,5.52
592125.500000,-0.914,-0.031,-0.375,17.76,0.03,8.61
592125.546000,-0.912,-0.051,-0.388,20.78,0.24,11.2
592125.593000,-0.916,-0.067,-0.38,20.6,3.08,11.17
592125.640000,-0.931,-0.067,-0.366,21.27,4.39,10.28
592125.687000,-0.924,-0.078,-0.365,21.76,2.47,9.98
592125.734000,-0.924,-0.071,-0.369,22.13,2.93,7.72
592125.781000,-0.917,-0.068,-0.38,20.29,3.14,5.95
592125.828000,-0.935,-0.054,-0.382,21.18,5.65,5.58
592125.875000,-0.926,-0.055,-0.37,26.22,4.18,5.37
592125.921000,-0.913,-0.036,-0.386,27.19,3.78,4.76
592125.968000,-0.913,-0.036,-0.378,28.11,4.27,9.95
592126.015000,-0.913,-0.063,-0.389,29.11,1.98,13.37
592126.062000,-0.908,-0.084,-0.399,25.67,3.36,11.66
592126.109000,-0.92,-0.077,-0.382,17.18,4.82,8.39
592126.156000,-0.916,-0.086,-0.386,20.91,4.24,9.52
592126.203000,-0.95,-0.066,-0.379,17.27,5.46,8.73
592126.250000,-0.899,-0.103,-0.384,-0.61,0.43,6.07
592126.296000,-0.898,-0.106,-0.401,-4.18,4.27,-0.73
592126.343000,-0.914,-0.083,-0.389,4.94,4.12,-1.56
592126.390000,-0.911,-0.061,-0.393,20.94,2.75,2.62
592126.437000,-0.902,-0.05,-0.396,17.21,2.41,1.59
592126.484000,-0.905,-0.037,-0.402,13.79,2.59,3.63
592126.531000,-0.91,-0.035,-0.393,14.77,3.75,6.2
592126.578000,-0.907,-0.042,-0.391,16.51,-0.67,9.89
592126.625000,-0.907,-0.062,-0.399,16.3,0.31,12.18
592126.671000,-0.904,-0.09,-0.395,15.78,-0.34,12.67
592126.718000,-0.906,-0.089,-0.41,18.01,2.04,10.77
592126.765000,-0.925,-0.091,-0.386,11.63,1.8,7.97
592126.812000,-0.906,-0.091,-0.411,14.95,0.67,6.29
592126.859000,-0.902,-0.076,-0.404,7.97,4.12,1.77
592126.906000,-0.91,-0.066,-0.391,11.93,3.39,3.63
592126.953000,-0.905,-0.068,-0.395,11.51,2.11,4.0
592127.000000,-0.903,-0.066,-0.396,9.03,1.56,3.81
592127.046000,-0.91,-0.068,-0.397,9.34,0.73,4.49
592127.093000,-0.908,-0.068,-0.395,10.28,-0.31,4.67
592127.140000,-0.901,-0.074,-0.408,13.64,-1.25,5.65
592127.187000,-0.906,-0.078,-0.403,13.67,-0.4,5.37
592127.234000,-0.905,-0.079,-0.404,13.18,-1.13,6.29
592127.281000,-0.903,-0.089,-0.413,8.51,-0.52,4.21
592127.328000,-0.909,-0.085,-0.421,4.36,1.37,1.77
592127.375000,-0.909,-0.077,-0.422,1.56,2.56,-1.1
592127.421000,-0.901,-0.068,-0.411,1.53,3.27,-1.74
592127.468000,-0.9,-0.058,-0.394,4.43,3.51,-0.06
592127.515000,-0.91,-0.052,-0.389,3.11,2.75,2.5
592127.562000,-0.915,-0.066,-0.381,2.72,1.04,3.63
592127.609000,-0.909,-0.071,-0.398,3.81,0.03,3.08
592127.656000,-0.921,-0.076,-0.391,10.01,0.24,3.45
592127.703000,-0.907,-0.067,-0.398,16.69,-1.01,2.69
592127.750000,-0.898,-0.056,-0.4,16.51,-1.31,4.43
592127.796000,-0.909,-0.067,-0.401,15.5,0.43,6.71
592127.843000,-0.907,-0.082,-0.399,10.19,-0.24,5.52
592127.890000,-0.908,-0.076,-0.4,7.78,1.5,4.03
592127.937000,-0.907,-0.082,-0.397,7.42,0.98,3.81
592127.984000,-0.907,-0.08,-0.405,9.64,1.62,3.51
592128.031000,-0.913,-0.08,-0.401,14.65,3.2,4.12
592128.078000,-0.908,-0.076,-0.403,16.91,1.74,4.52
592128.125000,-0.903,-0.078,-0.408,15.14,2.56,4.67
592128.171000,-0.901,-0.088,-0.409,10.32,2.56,3.69
592128.218000,-0.904,-0.086,-0.409,9.06,3.54,3.11
592128.265000,-0.906,-0.094,-0.397,10.96,2.23,3.3
592128.312000,-0.899,-0.092,-0.408,11.41,5.04,2.41
592128.359000,-0.907,-0.084,-0.394,16.75,3.33,2.59
592128.406000,-0.908,-0.081,-0.388,16.24,2.72,4.03
592128.453000,-0.903,-0.092,-0.396,15.23,0.15,7.35
592128.500000,-0.913,-0.103,-0.404,11.41,0.64,7.14
592128.546000,-0.905,-0.111,-0.405,11.26,-0.43,4.7
592128.593000,-0.91,-0.103,-0.418,14.31,1.31,1.92
592128.640000,-0.902,-0.093,-0.404,16.27,-0.18,0.52
592128.687000,-0.895,-0.094,-0.394,21.09,-1.25,5.16
592128.734000,-0.901,-0.107,-0.396,19.56,-1.77,6.59
592128.781000,-0.907,-0.114,-0.397,17.79,-1.01,7.72
592128.828000,-0.91,-0.128,-0.398,13.37,0.55,6.26
592128.875000,-0.908,-0.104,-0.397,5.83,1.5,0.24
592128.921000,-0.912,-0.09,-0.404,5.77,3.81,0.79
592128.968000,-0.91,-0.091,-0.383,13.82,3.45,3.11
592129.015000,-0.906,-0.091,-0.399,15.59,0.89,4.73
592129.062000,-0.905,-0.096,-0.388,9.34,0.95,3.42
592129.109000,-0.91,-0.098,-0.382,5.86,2.93,6.07
592129.156000,-0.925,-0.109,-0.369,9.37,2.96,9.4
592129.203000,-0.958,-0.111,-0.374,18.01,1.86,13.49
592129.250000,-0.922,-0.108,-0.427,3.63,-7.2,16.17
592129.296000,-0.864,-0.177,-0.414,-9.19,-1.8,12.18
592129.343000,-0.896,-0.137,-0.373,3.88,4.64,2.17
592129.390000,-0.9,-0.099,-0.376,4.06,1.8,0.95
592129.437000,-0.918,-0.108,-0.368,11.99,2.41,4.7
592129.484000,-0.918,-0.077,-0.375,16.02,1.86,1.07
592129.531000,-0.894,-0.07,-0.4,2.35,-0.67,-0.12
592129.578000,-0.898,-0.052,-0.413,3.39,2.59,0.92
592129.625000,-0.911,-0.086,-0.393,10.71,-0.76,7.9
592129.687000,-0.902,-0.104,-0.411,15.41,-1.04,7.39
592129.734000,-0.919,-0.117,-0.397,11.72,3.17,5.92
592129.781000,-0.905,-0.118,-0.397,1.95,3.45,1.68
592129.828000,-0.906,-0.11,-0.393,-1.59,7.78,-1.83
592129.875000,-0.919,-0.084,-0.382,2.26,3.78,-1.86
592129.921000,-0.897,-0.068,-0.399,0.76,1.89,-1.43
592129.968000,-0.897,-0.064,-0.394,-5.07,1.01,-0.4
592130.015000,-0.899,-0.084,-0.397,-3.97,-1.95,2.9
592130.062000,-0.901,-0.109,-0.402,-3.66,-3.75,5.19
592130.109000,-0.902,-0.129,-0.409,-7.17,-2.01,3.2
592130.156000,-0.91,-0.134,-0.394,-10.32,0.21,-0.95
592130.203000,-0.905,-0.125,-0.401,-12.6,-0.31,-4.52
592130.250000,-0.911,-0.104,-0.388,-15.29,2.08,-8.09
592130.296000,-0.913,-0.087,-0.4,-17.4,-0.85,-8.91
592130.343000,-0.899,-0.091,-0.41,-18.52,-1.16,-9.95
592130.390000,-0.909,-0.074,-0.4,-13.58,1.74,-8.73
592130.437000,-0.909,-0.066,-0.399,-11.11,-0.43,-7.54
592130.484000,-0.91,-0.065,-0.403,-8.97,0.95,-6.53
592130.531000,-0.913,-0.062,-0.391,-10.59,1.16,-5.16
592130.578000,-0.907,-0.063,-0.395,-8.24,-0.06,-4.0
592130.625000,-0.908,-0.071,-0.4,-5.77,-1.01,-3.75
592130.671000,-0.905,-0.064,-0.4,-6.41,-1.16,-2.93
592130.718000,-0.906,-0.075,-0.406,-3.94,-2.47,-0.95
592130.765000,-0.906,-0.086,-0.411,-4.88,-0.64,-1.43
592130.812000,-0.908,-0.093,-0.407,-4.09,0.61,-1.56
592130.859000,-0.9,-0.089,-0.411,-4.06,1.83,-3.23
592130.921000,-0.907,-0.081,-0.401,-2.2,2.44,-2.99
592130.968000,-0.905,-0.084,-0.399,-0.52,0.58,-2.14
592131.015000,-0.909,-0.08,-0.399,0.18,0.7,-1.86
592131.062000,-0.905,-0.075,-0.394,-2.14,0.03,-1.65
592131.109000,-0.908,-0.08,-0.397,-4.85,-1.74,0.55
592131.171000,-0.899,-0.105,-0.401,-5.65,-2.04,0.67
592131.218000,-0.902,-0.106,-0.402,-4.79,-1.74,-0.82
592131.265000,-0.908,-0.098,-0.402,-3.14,-1.01,-1.98
592131.312000,-0.908,-0.087,-0.404,-3.88,-0.76,-3.23
592131.359000,-0.906,-0.084,-0.403,-4.24,-1.13,-2.93
592131.406000,-0.908,-0.089,-0.408,-3.11,-1.1,-1.8
592131.453000,-0.91,-0.094,-0.403,-2.96,-0.49,-2.11
592131.500000,-0.9,-0.09,-0.405,-2.9,-0.09,-3.36
592131.546000,-0.909,-0.09,-0.4,-1.25,1.46,-2.5
592131.593000,-0.913,-0.09,-0.391,-1.1,0.37,-2.96
592131.640000,-0.909,-0.084,-0.391,0.7,0.31,-2.41
592131.687000,-0.908,-0.08,-0.394,0.12,-0.37,-1.13
592131.734000,-0.911,-0.084,-0.395,0.34,-0.4,0.12
592131.781000,-0.908,-0.091,-0.401,-0.12,-1.19,0.27
592131.828000,-0.906,-0.095,-0.405,0.4,0.31,0.73
592131.875000,-0.907,-0.098,-0.404,0.98,0.64,0.43
592131.921000,-0.908,-0.092,-0.398,1.53,1.62,0.34
592131.968000,-0.908,-0.091,-0.395,1.13,0.89,0.76
592132.015000,-0.906,-0.095,-0.393,1.95,0.67,1.59
592132.062000,-0.907,-0.098,-0.392,1.19,0.7,1.4
592132.109000,-0.91,-0.103,-0.393,0.76,-0.15,1.56
592132.156000,-0.905,-0.106,-0.398,0.64,-0.24,0.98
592132.203000,-0.905,-0.106,-0.401,0.49,0.03,0.27
592132.250000,-0.909,-0.099,-0.399,-0.03,0.85,-0.73
592132.296000,-0.907,-0.091,-0.397,-0.89,0.85,-1.28
592132.343000,-0.908,-0.09,-0.397,-0.7,1.13,-0.46
592132.390000,-0.909,-0.086,-0.396,0.03,0.73,-0.15
592132.437000,-0.907,-0.086,-0.392,0.4,0.21,0.64
592132.484000,-0.904,-0.097,-0.393,-0.4,-0.43,1.13
592132.531000,-0.918,-0.098,-0.388,-1.1,-0.03,0.43
592132.578000,-0.92,-0.092,-0.39,-6.87,-1.98,-1.25
592132.625000,-0.894,-0.101,-0.398,-11.23,-2.72,-1.19
592132.671000,-0.889,-0.114,-0.397,-13.12,-1.71,-0.89
592132.718000,-0.91,-0.122,-0.392,-17.88,-0.76,-2.2
592132.765000,-0.902,-0.154,-0.393,-18.8,-2.69,-6.81
592132.812000,-0.891,-0.142,-0.398,-19.59,-1.71,-11.47
592132.859000,-0.908,-0.11,-0.384,-24.6,-1.77,-13.98
592132.906000,-0.913,-0.117,-0.384,-28.9,-2.81,-14.77
592132.953000,-0.911,-0.119,-0.378,-29.66,-4.06,-16.48
592133.000000,-0.908,-0.105,-0.392,-39.37,-6.47,-17.64
592133.046000,-0.915,-0.117,-0.39,-38.48,-5.13,-16.17
592133.093000,-0.907,-0.122,-0.387,-42.97,-5.22,-18.59
592133.140000,-0.93,-0.11,-0.377,-42.54,-2.62,-19.93
592133.187000,-0.941,-0.103,-0.371,-37.42,-4.09,-19.71
592133.234000,-0.927,-0.097,-0.357,-37.9,-3.88,-21.94
592133.281000,-0.92,-0.088,-0.352,-33.02,-4.0,-22.0
592133.328000,-0.923,-0.052,-0.346,-26.92,-3.42,-20.17
592133.375000,-0.929,-0.038,-0.343,-25.33,-4.52,-16.02
592133.421000,-0.93,-0.03,-0.359,-23.9,-6.01,-12.94
592133.468000,-0.915,-0.041,-0.385,-21.88,-7.39,-8.94
592133.515000,-0.911,-0.047,-0.412,-9.89,-5.34,-3.72
592133.562000,-0.92,-0.063,-0.412,-6.84,-0.37,-0.4
592133.609000,-0.924,-0.06,-0.375,-2.5,2.9,0.64
592133.656000,-0.923,-0.045,-0.36,-0.89,-4.76,3.81
592133.703000,-0.925,-0.063,-0.351,-0.06,-5.49,6.99
592133.750000,-0.932,-0.075,-0.337,3.48,-4.61,9.58
592133.796000,-0.935,-0.098,-0.353,3.45,-4.82,7.97
592133.843000,-0.911,-0.09,-0.37,14.71,-2.44,7.69
592133.890000,-0.914,-0.087,-0.377,19.1,0.55,8.58
592133.953000,-0.929,-0.103,-0.356,16.69,5.43,7.84
592134.000000,-0.931,-0.086,-0.337,13.67,4.7,4.76
592134.062000,-0.933,-0.09,-0.338,3.3,-1.4,2.62
592134.109000,-0.933,-0.108,-0.346,4.43,-4.94,2.01
592134.171000,-0.925,-0.095,-0.359,4.27,-1.65,-0.61
592134.218000,-0.93,-0.088,-0.358,4.21,1.28,-0.55
592134.265000,-0.925,-0.085,-0.351,3.54,3.08,-1.34
592134.312000,-0.925,-0.076,-0.348,1.68,2.11,-1.83
592134.359000,-0.933,-0.075,-0.339,1.07,1.77,0.18
592134.406000,-0.93,-0.083,-0.346,0.67,-0.24,0.24
592134.453000,-0.927,-0.082,-0.355,1.19,-0.85,0.31
592134.500000,-0.927,-0.083,-0.362,1.59,0.61,1.16
592134.546000,-0.927,-0.087,-0.358,1.13,1.71,0.92
592134.593000,-0.925,-0.088,-0.356,-0.27,0.85,1.4
592134.640000,-0.925,-0.093,-0.356,-0.67,0.98,1.13
592134.703000,-0.928,-0.101,-0.344,0.7,1.53,0.92
592134.750000,-0.924,-0.089,-0.355,1.92,1.07,0.03
592134.796000,-0.926,-0.091,-0.356,0.79,2.2,0.18
592134.843000,-0.921,-0.089,-0.359,1.74,1.4,0.21
592134.890000,-0.922,-0.089,-0.359,1.68,1.56,0.85
592134.937000,-0.924,-0.097,-0.356,1.56,1.43,0.46
592134.984000,-0.922,-0.091,-0.356,0.61,1.1,-0.52
592135.031000,-0.924,-0.089,-0.36,0.43,1.4,-0.46
592135.078000,-0.925,-0.088,-0.357,1.28,1.65,-0.21
592135.125000,-0.924,-0.081,-0.358,2.47,0.98,-0.09
592135.171000,-0.923,-0.081,-0.362,3.2,0.31,1.19
592135.218000,-0.923,-0.087,-0.364,3.69,-0.18,2.66
592135.265000,-0.92,-0.095,-0.372,1.89,-0.24,2.2
592135.312000,-0.922,-0.099,-0.37,0.64,1.71,1.65
592135.359000,-0.915,-0.093,-0.361,-2.26,1.5,-0.64
592135.406000,-0.921,-0.087,-0.359,-2.17,2.01,0.4
592135.453000,-0.928,-0.093,-0.357,-1.5,0.4,0.58
592135.500000,-0.924,-0.093,-0.364,-1.98,-1.13,-0.34
592135.546000,-0.911,-0.093,-0.368,-0.64,-0.67,-0.49
592135.593000,-0.925,-0.088,-0.361,0.95,0.79,0.43
592135.640000,-0.926,-0.093,-0.359,-1.19,0.27,-0.09
592135.687000,-0.921,-0.087,-0.365,-0.7,0.09,-0.55
592135.734000,-0.924,-0.088,-0.364,-1.77,0.27,-0.06
592135.781000,-0.923,-0.093,-0.363,-1.1,0.61,-0.64
592135.828000,-0.925,-0.086,-0.364,0.18,1.13,-1.5
592135.875000,-0.923,-0.079,-0.363,0.49,1.04,-0.89
592135.921000,-0.924,-0.08,-0.36,0.52,0.55,0.18
592135.968000,-0.923,-0.084,-0.358,0.06,0.92,0.31
592136.015000,-0.927,-0.085,-0.355,-0.21,0.98,0.98
592136.062000,-0.925,-0.094,-0.354,0.37,-0.06,0.7
592136.109000,-0.923,-0.089,-0.362,0.58,-0.64,0.0
592136.156000,-0.921,-0.088,-0.361,1.28,0.21,0.09
592136.203000,-0.924,-0.079,-0.364,0.49,-0.37,0.0
592136.250000,-0.924,-0.081,-0.365,0.95,0.27,0.85
592136.296000,-0.922,-0.081,-0.364,-0.27,-0.37,0.95
592136.343000,-0.92,-0.088,-0.365,0.55,0.4,1.71
592136.390000,-0.922,-0.09,-0.361,1.07,0.24,1.59
592136.437000,-0.923,-0.094,-0.355,0.58,0.09,1.19
592136.484000,-0.921,-0.092,-0.358,1.07,-0.55,0.52
592136.531000,-0.928,-0.093,-0.358,-0.58,-0.15,0.37
592136.578000,-0.919,-0.092,-0.366,-0.18,-0.15,-0.76
592136.625000,-0.921,-0.085,-0.364,0.06,0.89,-0.82
592136.671000,-0.925,-0.087,-0.358,0.06,1.04,-0.27
592136.734000,-0.925,-0.083,-0.355,1.07,0.55,-0.73
592136.781000,-0.923,-0.08,-0.358,1.53,0.21,-0.12
592136.828000,-0.934,-0.084,-0.357,0.95,-0.34,0.98
592136.890000,-0.919,-0.087,-0.373,-0.82,-0.27,0.0
592136.937000,-0.919,-0.088,-0.361,-0.58,1.34,0.0
592136.984000,-0.923,-0.084,-0.356,-0.82,1.59,0.12
592137.031000,-0.929,-0.088,-0.352,-1.43,1.19,0.12
592137.078000,-0.925,-0.084,-0.36,-0.12,-0.18,-0.21
592137.125000,-0.923,-0.078,-0.363,-0.49,-0.31,-0.37
592137.171000,-0.92,-0.078,-0.367,-0.12,0.0,0.18
592137.218000,-0.92,-0.086,-0.361,1.25,0.55,0.98
592137.265000,-0.923,-0.085,-0.357,1.22,0.15,0.55
592137.328000,-0.922,-0.085,-0.354,1.16,0.03,0.95
592137.375000,-0.921,-0.094,-0.362,1.04,-1.22,0.95
592137.421000,-0.923,-0.094,-0.363,0.34,0.06,-0.09
592137.468000,-0.926,-0.089,-0.359,-0.43,0.61,-0.55
592137.531000,-0.922,-0.09,-0.357,0.06,0.52,-0.43
592137.578000,-0.925,-0.084,-0.354,0.31,1.01,-0.92
592137.625000,-0.925,-0.085,-0.362,0.76,0.27,0.21
592137.671000,-0.927,-0.085,-0.355,1.28,1.01,-0.03
592137.718000,-0.929,-0.085,-0.357,0.67,0.49,0.55
592137.765000,-0.921,-0.087,-0.361,2.23,0.31,0.15
592137.812000,-0.925,-0.081,-0.36,0.55,0.95,0.49
592137.859000,-0.925,-0.091,-0.36,0.98,0.67,0.85
592137.906000,-0.925,-0.091,-0.36,1.13,0.7,0.24
592137.953000,-0.921,-0.089,-0.362,1.37,0.73,0.27
592138.000000,-0.927,-0.087,-0.359,0.79,1.19,0.49
592138.046000,-0.923,-0.087,-0.363,0.49,0.31,0.31
592138.093000,-0.923,-0.086,-0.364,0.15,1.77,0.73
592138.140000,-0.922,-0.09,-0.362,-1.19,1.16,0.46
592138.187000,-0.92,-0.086,-0.36,-1.01,1.8,0.12
592138.234000,-0.922,-0.086,-0.359,-1.01,1.37,0.15
592138.281000,-0.922,-0.087,-0.364,-0.55,0.64,0.4
592138.328000,-0.922,-0.088,-0.364,-0.37,0.95,0.21
592138.375000,-0.921,-0.085,-0.365,-0.58,0.82,-0.03
592138.421000,-0.922,-0.083,-0.366,-0.61,0.98,-0.18
592138.468000,-0.921,-0.082,-0.364,-0.61,0.76,0.21
592138.515000,-0.921,-0.085,-0.365,-0.55,0.34,0.0
592138.562000,-0.922,-0.078,-0.368,0.21,0.43,0.24
592138.609000,-0.921,-0.087,-0.368,-0.18,0.31,0.18
592138.656000,-0.922,-0.082,-0.369,-0.24,0.67,-0.24
592138.703000,-0.923,-0.082,-0.365,-0.18,0.92,-0.09
592138.750000,-0.92,-0.083,-0.365,-0.09,0.4,-0.09
592138.812000,-0.922,-0.083,-0.364,0.67,0.52,0.18
592138.859000,-0.922,-0.083,-0.363,1.56,0.21,0.64
592138.906000,-0.926,-0.084,-0.364,1.77,-0.37,0.4
592138.953000,-0.922,-0.086,-0.364,0.89,-0.89,0.52
592139.000000,-0.926,-0.087,-0.369,1.46,0.58,0.12
592139.046000,-0.923,-0.089,-0.368,0.46,0.43,0.46
592139.093000,-0.919,-0.089,-0.362,0.92,1.31,0.21
592139.140000,-0.926,-0.092,-0.359,0.31,1.16,-0.09
592139.187000,-0.923,-0.09,-0.357,0.49,0.06,-0.55
592139.234000,-0.923,-0.088,-0.36,-0.58,0.06,-0.4
592139.281000,-0.924,-0.087,-0.372,0.12,-0.09,-0.43
592139.328000,-0.923,-0.083,-0.369,0.09,0.4,0.24
592139.375000,-0.922,-0.088,-0.366,-0.34,0.58,-0.15
592139.421000,-0.923,-0.081,-0.358,0.61,-0.15,-0.24
592139.468000,-0.92,-0.087,-0.361,-0.43,-0.61,0.52
592139.515000,-0.924,-0.09,-0.361,-0.67,-0.55,0.55
592139.562000,-0.923,-0.09,-0.367,-0.43,-0.4,0.64
592139.609000,-0.925,-0.092,-0.364,-1.31,0.79,-0.27
592139.656000,-0.924,-0.085,-0.368,-1.53,0.73,-0.24
592139.703000,-0.923,-0.092,-0.362,-1.98,0.79,0.12
592139.750000,-0.922,-0.085,-0.362,-3.11,0.27,-0.58
592139.796000,-0.923,-0.085,-0.363,-3.54,0.67,-0.7
592139.843000,-0.922,-0.083,-0.369,-3.97,0.31,-1.01
592139.890000,-0.923,-0.076,-0.368,-2.59,1.28,-0.82
592139.937000,-0.924,-0.074,-0.372,-2.08,1.19,0.27
592139.984000,-0.922,-0.078,-0.368,-1.22,1.43,0.37
592140.031000,-0.921,-0.075,-0.365,0.0,1.31,0.82
592140.078000,-0.92,-0.08,-0.365,-0.43,0.92,1.37
592140.125000,-0.922,-0.08,-0.365,-0.27,0.27,1.34
592140.171000,-0.92,-0.08,-0.37,-0.64,-0.18,1.28
592140.218000,-0.923,-0.085,-0.37,-0.24,0.61,0.89
592140.265000,-0.921,-0.081,-0.369,-0.58,0.15,0.0
592140.312000,-0.918,-0.083,-0.366,-0.76,0.52,-0.61
592140.359000,-0.92,-0.072,-0.365,-0.49,0.12,-0.82
592140.406000,-0.922,-0.074,-0.367,-1.83,-0.15,0.46
592140.453000,-0.914,-0.078,-0.373,-0.85,-0.18,0.12
592140.500000,-0.923,-0.076,-0.369,-0.43,0.27,0.64
592140.546000,-0.922,-0.076,-0.364,-0.24,-0.24,0.12
592140.593000,-0.917,-0.074,-0.37,-0.03,-0.34,0.43
592140.640000,-0.92,-0.078,-0.37,0.0,-0.27,0.67
592140.687000,-0.922,-0.079,-0.365,-0.15,0.24,0.46
592140.734000,-0.919,-0.077,-0.369,-0.52,0.27,0.12
592140.781000,-0.922,-0.075,-0.363,-0.27,0.52,0.55
592140.828000,-0.923,-0.077,-0.36,0.18,0.12,0.12
592140.875000,-0.923,-0.078,-0.362,-0.06,-0.58,0.21
592140.937000,-0.921,-0.077,-0.365,-0.12,-0.34,0.03
592140.984000,-0.922,-0.073,-0.367,-0.52,-0.31,-0.27
592141.031000,-0.924,-0.072,-0.363,0.21,0.24,0.24
592141.078000,-0.923,-0.072,-0.36,-0.18,-0.12,0.06
592141.140000,-0.924,-0.073,-0.361,0.09,0.43,0.89
592141.187000,-0.927,-0.074,-0.363,0.43,-0.12,0.46
592141.234000,-0.925,-0.073,-0.367,-0.06,-0.24,0.55
592141.281000,-0.924,-0.073,-0.367,0.21,0.31,0.34
592141.328000,-0.923,-0.069,-0.365,0.46,0.46,0.55
592141.375000,-0.928,-0.072,-0.362,-0.24,0.92,0.61
592141.421000,-0.924,-0.072,-0.362,-0.18,0.7,0.27
592141.468000,-0.916,-0.07,-0.365,0.09,0.52,0.64
592141.515000,-0.926,-0.066,-0.365,0.49,1.46,1.1
592141.562000,-0.916,-0.081,-0.367,-0.46,0.31,0.61
592141.609000,-0.915,-0.082,-0.37,1.95,1.31,1.01
592141.656000,-0.919,-0.081,-0.361,1.98,1.46,-0.15
592141.703000,-0.919,-0.073,-0.362,2.47,1.77,-0.46
592141.750000,-0.926,-0.076,-0.354,-0.98,0.85,-0.7
592141.796000,-0.929,-0.072,-0.363,-0.64,-0.21,-0.98
592141.843000,-0.922,-0.075,-0.375,-1.86,-0.34,-0.76
592141.890000,-0.929,-0.069,-0.385,-0.67,1.8,-1.13
592141.937000,-0.916,-0.073,-0.383,-3.42,1.56,-1.01
592141.984000,-0.911,-0.078,-0.377,-2.93,3.78,-0.76
592142.031000,-0.922,-0.07,-0.357,-1.65,3.3,-0.49
592142.078000,-0.926,-0.073,-0.347,-0.46,2.47,-0.15
592142.125000,-0.923,-0.073,-0.354,-0.24,-0.64,-1.71
592142.171000,-0.921,-0.081,-0.358,3.75,-3.45,-7.45
592142.218000,-0.922,-0.052,-0.369,7.14,-4.61,-5.46
592142.265000,-0.921,-0.055,-0.387,2.38,-4.06,3.3
592142.312000,-0.918,-0.092,-0.389,0.15,-0.67,5.83
592142.359000,-0.923,-0.092,-0.374,0.06,2.47,3.05
592142.406000,-0.921,-0.077,-0.362,-1.04,3.17,1.28
592142.453000,-0.92,-0.071,-0.358,1.01,3.05,2.78
592142.500000,-0.92,-0.08,-0.35,-0.73,0.7,3.27
592142.546000,-0.926,-0.078,-0.359,-0.79,-0.82,2.41
592142.593000,-0.921,-0.091,-0.371,0.09,-1.83,1.53
592142.640000,-0.923,-0.079,-0.375,-0.89,0.4,0.0
592142.687000,-0.919,-0.077,-0.375,-1.77,0.7,-0.34
592142.734000,-0.915,-0.068,-0.376,-0.89,2.04,-0.7
592142.796000,-0.926,-0.064,-0.369,0.09,1.22,0.24
592142.843000,-0.92,-0.067,-0.37,0.06,0.34,0.49
592142.890000,-0.918,-0.071,-0.372,0.12,0.82,1.13
592142.937000,-0.923,-0.07,-0.37,0.15,0.79,0.61
592142.984000,-0.917,-0.078,-0.376,-0.85,0.64,-0.37
592143.031000,-0.919,-0.074,-0.374,-0.85,1.4,-1.04
592143.078000,-0.922,-0.068,-0.368,-0.24,1.28,-0.55
592143.125000,-0.921,-0.07,-0.366,-0.64,1.01,-1.22
592143.171000,-0.918,-0.068,-0.368,-0.7,-0.06,-0.55
592143.218000,-0.919,-0.073,-0.368,-0.31,0.09,-0.49
592143.265000,-0.92,-0.073,-0.369,-0.52,-0.49,-0.73
592143.312000,-0.922,-0.071,-0.367,-0.61,-0.37,-0.7
592143.359000,-0.924,-0.072,-0.372,-1.13,-0.7,-0.76
592143.406000,-0.922,-0.074,-0.374,0.37,-0.18,-1.19
592143.453000,-0.921,-0.068,-0.373,0.64,-0.27,-1.46
592143.500000,-0.921,-0.066,-0.372,1.04,0.55,-0.03
592143.546000,-0.92,-0.074,-0.37,0.18,0.18,0.06
592143.593000,-0.921,-0.076,-0.369,-0.64,0.37,-0.34
592143.640000,-0.922,-0.076,-0.368,-0.31,0.58,-0.58
592143.687000,-0.923,-0.073,-0.368,-0.49,0.24,-0.21
592143.734000,-0.922,-0.076,-0.368,-1.01,0.24,-0.55
592143.781000,-0.922,-0.071,-0.37,-0.92,0.0,-0.03
592143.828000,-0.921,-0.074,-0.366,-1.34,0.46,0.12
592143.875000,-0.919,-0.075,-0.371,-1.19,0.0,0.4
592143.921000,-0.926,-0.074,-0.369,-0.43,0.85,0.64
592143.968000,-0.927,-0.074,-0.367,-1.5,0.55,0.55
592144.015000,-0.917,-0.074,-0.376,-1.4,0.18,0.09
592144.062000,-0.924,-0.073,-0.369,-0.31,0.73,0.7
592144.109000,-0.921,-0.075,-0.369,-1.04,0.37,0.46
592144.156000,-0.916,-0.079,-0.373,-1.31,0.67,-0.15
592144.203000,-0.925,-0.071,-0.37,-0.85,1.1,-0.24
592144.250000,-0.924,-0.075,-0.367,-1.25,0.92,-0.24
592144.296000,-0.915,-0.072,-0.373,-1.37,0.43,-0.89
592144.343000,-0.921,-0.07,-0.372,-0.34,1.04,-0.73
592144.390000,-0.921,-0.07,-0.369,0.52,0.79,-0.85
592144.437000,-0.922,-0.068,-0.369,-1.1,1.13,-0.18
592144.484000,-0.917,-0.081,-0.373,-1.62,0.76,-0.03
592144.531000,-0.92,-0.078,-0.375,0.09,1.86,-0.58
592144.578000,-0.916,-0.078,-0.376,0.03,1.25,-1.37
592144.625000,-0.917,-0.071,-0.374,0.31,1.65,-1.1
592144.671000,-0.915,-0.071,-0.37,0.7,0.73,-0.76
592144.718000,-0.916,-0.071,-0.37,0.64,0.52,-0.55
592144.765000,-0.919,-0.07,-0.368,0.89,0.15,0.34
592144.812000,-0.917,-0.077,-0.374,0.46,-0.03,0.37
592144.859000,-0.918,-0.079,-0.376,-0.55,-0.82,0.24
592144.906000,-0.919,-0.081,-0.376,0.27,-0.09,0.0
592144.953000,-0.917,-0.077,-0.373,-0.21,0.55,-0.27
592145.000000,-0.921,-0.074,-0.369,0.64,-0.37,-0.4
592145.046000,-0.916,-0.072,-0.371,-0.82,-1.59,-0.55
592145.093000,-0.918,-0.07,-0.378,0.37,-1.19,0.85
592145.140000,-0.924,-0.085,-0.375,0.31,-1.71,0.82
592145.187000,-0.916,-0.08,-0.38,0.55,-0.58,-0.27
592145.234000,-0.923,-0.078,-0.37,0.4,0.27,0.52
592145.281000,-0.927,-0.077,-0.366,-0.92,0.37,-0.46
592145.328000,-0.919,-0.077,-0.367,-1.77,-0.55,-0.58
592145.375000,-0.923,-0.078,-0.369,-1.16,0.61,-0.55
592145.421000,-0.921,-0.078,-0.368,-1.22,0.4,-0.92
592145.468000,-0.917,-0.068,-0.376,-0.46,1.13,-0.58
592145.515000,-0.921,-0.068,-0.365,-0.82,0.89,-0.12
592145.562000,-0.921,-0.067,-0.361,0.55,0.43,0.73
592145.609000,-0.923,-0.072,-0.363,0.34,-1.46,1.1
592145.656000,-0.924,-0.076,-0.368,0.4,-1.37,1.19
592145.718000,-0.919,-0.079,-0.37,0.98,-0.85,0.61
592145.765000,-0.928,-0.075,-0.369,1.43,0.09,0.09
592145.812000,-0.961,-0.069,-0.408,0.15,2.29,0.06
592145.859000,-0.914,-0.086,-0.38,2.81,4.12,-0.31
592145.906000,-0.898,-0.067,-0.375,5.98,2.72,-1.56
592145.953000,-0.9,-0.053,-0.361,2.23,3.33,-0.55
592146.000000,-0.913,-0.074,-0.337,1.46,2.08,3.33
592146.046000,-0.936,-0.087,-0.334,-1.86,-0.67,2.14
592146.093000,-0.934,-0.092,-0.351,-0.92,-4.58,1.74
592146.140000,-0.921,-0.091,-0.373,-1.37,-4.33,-0.24
592146.187000,-0.919,-0.081,-0.384,-2.01,-2.99,-1.25
592146.234000,-0.92,-0.066,-0.387,-0.98,-1.04,-1.16
592146.281000,-0.928,-0.062,-0.383,0.7,0.43,0.06
592146.328000,-0.915,-0.069,-0.362,0.67,0.49,0.55
592146.390000,-0.929,-0.074,-0.358,0.06,0.21,1.71
592146.437000,-0.933,-0.086,-0.353,0.52,-0.52,1.1
592146.484000,-0.92,-0.082,-0.366,0.37,-0.89,-0.18
592146.531000,-0.92,-0.075,-0.371,1.31,0.27,-0.27
592146.578000,-0.924,-0.075,-0.363,0.18,1.01,-0.21
592146.625000,-0.92,-0.076,-0.359,0.31,0.82,-0.49
592146.671000,-0.925,-0.074,-0.355,0.31,0.27,0.21
592146.718000,-0.928,-0.08,-0.358,0.46,-0.09,-0.55
592146.765000,-0.924,-0.072,-0.368,1.1,-0.21,-0.37
592146.812000,-0.925,-0.076,-0.371,0.92,0.37,0.03
592146.859000,-0.922,-0.078,-0.363,1.43,1.22,-0.31
592146.906000,-0.921,-0.07,-0.346,1.77,0.92,0.03
592146.953000,-0.924,-0.072,-0.345,0.82,-0.89,0.64
592147.000000,-0.931,-0.082,-0.357,1.07,-1.92,0.98
592147.046000,-0.923,-0.08,-0.369,-0.03,-2.11,-0.73
592147.093000,-0.923,-0.079,-0.377,-0.55,0.34,-0.06
592147.140000,-0.922,-0.081,-0.362,-0.03,2.11,-0.64
592147.187000,-0.925,-0.072,-0.344,0.24,1.77,0.03
592147.234000,-0.934,-0.072,-0.344,-0.06,0.06,0.43
592147.281000,-0.93,-0.077,-0.357,-0.7,-0.52,0.58
592147.328000,-0.921,-0.078,-0.368,-0.85,-0.15,-0.15
592147.375000,-0.923,-0.073,-0.368,-0.89,1.31,0.34
592147.421000,-0.926,-0.073,-0.355,-1.4,1.22,-0.12
592147.468000,-0.925,-0.073,-0.352,-1.71,0.49,0.52
592147.515000,-0.925,-0.074,-0.355,-1.95,-0.03,0.52
592147.562000,-0.928,-0.075,-0.357,-1.46,-0.21,0.21
592147.609000,-0.924,-0.069,-0.368,-1.16,0.09,0.49
592147.671000,-0.92,-0.077,-0.363,-2.08,0.52,0.61
592147.718000,-0.921,-0.073,-0.361,-2.17,1.13,0.4
592147.765000,-0.93,-0.078,-0.356,-2.32,0.79,0.15
592147.812000,-0.923,-0.073,-0.357,-1.56,0.67,-0.82
592147.859000,-0.921,-0.068,-0.359,-1.77,0.43,-0.7
592147.906000,-0.926,-0.067,-0.362,-1.34,0.73,-0.12
592147.953000,-0.92,-0.068,-0.361,-0.98,0.15,-0.12
592148.015000,-0.92,-0.066,-0.36,-0.64,0.18,0.49
592148.062000,-0.927,-0.074,-0.359,-0.89,0.06,0.55
592148.109000,-0.925,-0.072,-0.364,0.15,0.06,-0.12
592148.156000,-0.921,-0.069,-0.362,0.43,0.15,0.18
592148.203000,-0.925,-0.067,-0.362,0.18,0.4,-0.03
592148.250000,-0.924,-0.069,-0.362,0.79,0.7,0.55
592148.296000,-0.924,-0.073,-0.362,1.01,0.55,0.24
592148.343000,-0.924,-0.072,-0.362,0.58,0.73,-0.09
592148.390000,-0.925,-0.072,-0.362,-0.15,1.01,-0.61
592148.437000,-0.921,-0.068,-0.362,-0.09,1.01,-0.76
592148.484000,-0.925,-0.069,-0.361,0.03,0.95,-0.21
592148.531000,-0.925,-0.073,-0.363,-0.31,1.07,-0.55
592148.578000,-0.926,-0.068,-0.362,-0.03,0.73,-0.46
592148.625000,-0.926,-0.068,-0.363,-0.52,1.07,-0.52
592148.671000,-0.922,-0.069,-0.361,-0.34,0.52,-0.4
592148.718000,-0.926,-0.066,-0.363,0.92,0.82,0.58
592148.765000,-0.926,-0.075,-0.364,-0.43,-0.21,0.21
592148.812000,-0.919,-0.07,-0.365,0.06,0.27,0.18
592148.859000,-0.924,-0.072,-0.363,0.89,0.18,0.95
592148.906000,-0.924,-0.078,-0.363,0.34,0.21,0.27
592148.953000,-0.921,-0.073,-0.359,0.7,0.15,-0.18
592149.000000,-0.922,-0.07,-0.366,0.46,0.0,0.0
592149.046000,-0.926,-0.077,-0.36,0.34,0.0,0.06
592149.093000,-0.921,-0.075,-0.365,-0.12,-0.31,-0.76
592149.140000,-0.926,-0.073,-0.364,0.09,0.27,-0.15
592149.187000,-0.924,-0.073,-0.365,0.0,0.0,-0.58
592149.234000,-0.923,-0.07,-0.367,0.76,0.37,-0.12
592149.281000,-0.922,-0.072,-0.365,0.95,0.27,0.34
592149.328000,-0.924,-0.076,-0.363,0.52,0.34,0.43
592149.375000,-0.922,-0.075,-0.364,0.4,0.55,-0.06
592149.421000,-0.924,-0.075,-0.362,0.34,0.79,-0.06
592149.468000,-0.924,-0.074,-0.361,-0.06,0.64,-0.12
592149.515000,-0.924,-0.072,-0.36,0.34,0.4,-0.27
592149.562000,-0.923,-0.073,-0.362,0.21,0.0,0.12
592149.609000,-0.924,-0.077,-0.361,0.18,0.24,0.15
592149.656000,-0.925,-0.074,-0.364,-0.37,0.0,-0.18
592149.703000,-0.923,-0.075,-0.366,-0.98,0.4,-0.27
592149.750000,-0.923,-0.075,-0.363,-0.27,0.82,-0.06
592149.796000,-0.924,-0.076,-0.359,-0.76,0.09,-0.18
592149.843000,-0.923,-0.076,-0.365,-1.13,0.4,0.06
592149.890000,-0.926,-0.071,-0.363,-1.4,1.01,-0.4
592149.953000,-0.921,-0.073,-0.364,-1.56,0.58,-0.46
592150.015000,-0.928,-0.073,-0.362,-0.03,0.82,0.98
592150.062000,-0.921,-0.081,-0.362,-0.82,-0.18,-0.12
592150.109000,-0.923,-0.07,-0.364,-1.19,0.61,-0.06
592150.156000,-0.927,-0.079,-0.36,-1.34,0.09,-0.09
592150.203000,-0.923,-0.071,-0.364,-0.52,-0.21,-0.67
592150.250000,-0.92,-0.071,-0.362,0.09,-0.06,0.06
592150.296000,-0.931,-0.074,-0.36,0.76,0.09,0.46
592150.343000,-0.921,-0.073,-0.365,-0.34,-0.15,-0.58
592150.390000,-0.925,-0.068,-0.361,0.4,0.61,0.4
592150.437000,-0.928,-0.073,-0.359,0.37,0.21,0.46
592150.484000,-0.923,-0.069,-0.365,0.67,-0.24,0.37
592150.531000,-0.923,-0.073,-0.367,0.24,0.27,0.7
592150.578000,-0.925,-0.078,-0.366,-0.15,0.52,0.03
592150.625000,-0.926,-0.072,-0.365,-0.85,0.95,-0.52
592150.671000,-0.923,-0.073,-0.363,-1.46,1.13,0.06
592150.718000,-0.924,-0.075,-0.358,-1.34,1.25,-0.46
592150.765000,-0.923,-0.067,-0.362,-1.22,0.64,0.09
592150.812000,-0.927,-0.069,-0.362,-1.28,0.73,-0.03
592150.859000,-0.92,-0.066,-0.366,-1.5,0.82,0.18
592150.906000,-0.925,-0.065,-0.362,-0.67,0.95,0.89
592150.953000,-0.925,-0.07,-0.363,-1.22,0.09,0.79
592151.000000,-0.924,-0.068,-0.363,-0.21,0.7,1.22
592151.046000,-0.924,-0.072,-0.365,-0.85,0.24,0.79
592151.093000,-0.924,-0.066,-0.367,-0.7,0.27,0.67
592151.140000,-0.924,-0.069,-0.366,-0.46,0.49,0.67
