t_monotonic,ax,ay,az,gx,gy,gz
1637757.798365,0.663,-0.518,0.573,-27.04,27.8,-1.34
1637757.848900,0.64,-0.503,0.601,-25.24,30.43,-1.56
1637757.888931,0.614,-0.54,0.663,-24.99,18.46,-9.25
1637757.929113,0.602,-0.538,0.704,-3.81,15.29,-10.62
1637757.978976,0.63,-0.498,0.65,4.39,-1.98,-9.13
1637758.029085,0.631,-0.455,0.619,-1.4,-7.11,-10.32
1637758.078788,0.652,-0.449,0.548,-6.81,-7.48,-3.42
1637758.128514,0.651,-0.489,0.548,-1.01,-0.46,2.75
1637758.178255,0.642,-0.527,0.576,0.7,2.59,2.41
1637758.228260,0.648,-0.509,0.587,-0.92,-0.27,0.55
1637758.272516,0.652,-0.509,0.585,1.83,-2.44,1.86
1637758.319170,0.663,-0.511,0.557,-2.96,-4.94,1.31
1637758.369046,0.671,-0.521,0.541,-1.22,-3.63,1.19
1637758.418843,0.659,-0.52,0.549,-1.74,-1.34,1.59
1637758.463869,0.653,-0.516,0.56,-3.51,-4.82,1.01
1637758.504300,0.654,-0.519,0.557,-1.83,-3.85,1.83
1637758.548915,0.662,-0.518,0.532,-1.95,-5.62,3.3
1637758.598598,0.662,-0.527,0.518,0.95,0.12,2.59
1637758.648315,0.654,-0.517,0.541,3.72,2.56,2.66
1637758.698046,0.66,-0.515,0.542,1.19,3.42,3.36
1637758.742895,0.655,-0.52,0.547,1.56,2.11,3.75
1637758.793161,0.659,-0.544,0.555,0.03,1.62,4.46
1637758.839218,0.646,-0.554,0.57,0.37,3.54,2.69
1637758.888761,0.654,-0.538,0.565,1.74,0.49,0.18
1637758.938294,0.649,-0.531,0.557,-0.15,1.31,-0.15
1637758.987929,0.648,-0.529,0.553,0.92,-0.37,-0.06
1637759.032431,0.651,-0.525,0.552,-0.98,0.73,-0.82
1637759.079225,0.648,-0.514,0.55,0.67,0.79,1.4
1637759.128923,0.64,-0.524,0.55,0.7,1.43,3.54
1637759.178550,0.643,-0.515,0.55,-0.55,0.82,4.49
1637759.228309,0.64,-0.525,0.576,5.34,3.2,8.24
1637759.278744,0.633,-0.511,0.617,23.38,0.7,15.23
1637759.318935,0.641,-0.488,0.625,28.32,-1.8,17.58
1637759.360769,0.639,-0.487,0.647,35.65,-3.94,21.64
1637759.410176,0.646,-0.511,0.609,24.2,-6.81,20.26
1637759.462538,0.652,-0.547,0.588,6.5,-2.72,10.41
1637759.512383,0.631,-0.564,0.604,12.05,-4.88,9.67
1637759.558228,0.627,-0.57,0.606,50.33,3.6,14.8
1637759.608425,0.588,-0.462,0.634,78.07,-1.04,22.86
1637759.648443,0.598,-0.436,0.602,70.56,11.93,20.02
1637759.688950,0.527,-0.404,0.728,59.97,23.13,18.37
1637759.729004,0.511,-0.379,0.716,50.48,3.48,24.08
1637759.782021,0.519,-0.411,0.717,40.8,3.57,18.07
1637759.822351,0.545,-0.422,0.729,34.12,5.04,10.8
1637759.872704,0.544,-0.403,0.762,23.35,6.2,4.52
1637759.922781,0.543,-0.359,0.784,33.17,5.98,10.93
1637759.968428,0.525,-0.304,0.793,26.98,3.05,13.92
1637760.011419,0.527,-0.35,0.778,19.71,7.6,11.66
1637760.058544,0.527,-0.337,0.802,13.55,2.81,6.78
1637760.109912,0.523,-0.344,0.809,3.72,3.78,2.5
1637760.152628,0.512,-0.32,0.804,-1.77,2.11,1.8
1637760.199240,0.514,-0.334,0.801,0.06,2.08,5.07
1637760.248943,0.502,-0.314,0.8,2.44,6.07,4.39
1637760.298487,0.504,-0.328,0.822,-7.14,1.04,-0.27
1637760.348632,0.502,-0.323,0.821,-8.27,1.22,-1.56
1637760.398284,0.506,-0.326,0.797,-5.01,-3.57,0.64
1637760.438589,0.514,-0.332,0.803,-18.92,-4.52,-4.64
1637760.482481,0.515,-0.344,0.786,-36.62,-7.6,-8.91
1637760.528572,0.514,-0.366,0.787,-37.9,-13.03,-4.97
1637760.578541,0.539,-0.407,0.737,-38.45,-9.28,-9.31
1637760.618568,0.549,-0.412,0.742,-42.91,-7.51,-12.36
1637760.658616,0.565,-0.454,0.719,-33.23,-11.29,-10.5
1637760.708949,0.559,-0.464,0.704,-21.15,-6.23,-8.18
1637760.759226,0.549,-0.439,0.701,-29.3,1.71,-13.95
1637760.799538,0.559,-0.449,0.684,-30.76,-6.59,-17.43
1637760.842168,0.581,-0.467,0.698,-15.14,-10.9,-7.51
1637760.889315,0.577,-0.475,0.669,-12.3,-1.68,-6.62
1637760.942896,0.599,-0.475,0.655,-11.32,-8.76,-6.93
1637760.989444,0.591,-0.471,0.66,-9.4,4.82,-7.11
1637761.038825,0.602,-0.495,0.66,-5.77,-3.94,-2.84
1637761.088497,0.591,-0.472,0.658,1.16,4.58,-5.49
1637761.128516,0.579,-0.467,0.668,-1.68,1.31,-3.45
1637761.172124,0.597,-0.462,0.671,-0.34,-2.08,-1.31
1637761.219228,0.607,-0.473,0.642,3.63,1.59,-3.57
1637761.269059,0.591,-0.459,0.655,1.46,2.41,-1.46
1637761.318776,0.605,-0.471,0.659,0.58,0.12,-1.83
1637761.368473,0.584,-0.473,0.684,1.07,3.54,-5.37
1637761.412587,0.611,-0.463,0.667,9.16,-1.13,-1.59
1637761.462710,0.59,-0.421,0.675,0.43,0.49,-2.59
1637761.509457,0.594,-0.461,0.662,-5.77,-2.14,-3.27
1637761.558935,0.6,-0.447,0.655,1.89,1.56,-3.11
1637761.608333,0.603,-0.447,0.663,-8.76,3.2,-4.64
1637761.658044,0.599,-0.462,0.673,-5.83,5.8,-5.25
1637761.707794,0.592,-0.451,0.675,1.4,1.77,-3.02
1637761.752275,0.597,-0.459,0.675,-7.35,1.01,-4.67
1637761.802256,0.599,-0.457,0.677,-12.12,-2.87,-7.48
1637761.852094,0.61,-0.469,0.661,-5.55,0.21,-5.71
1637761.898870,0.607,-0.451,0.653,-7.42,-0.64,-4.76
1637761.948881,0.606,-0.465,0.637,-11.66,0.49,-4.43
1637761.999053,0.607,-0.483,0.631,-15.08,-3.81,-4.03
1637762.039242,0.77,-0.532,0.518,-31.31,-10.99,-14.4
1637762.079454,0.643,-0.656,0.605,-71.47,-2.66,-32.99
1637762.119578,0.631,-0.548,0.554,-40.13,-9.25,-20.63
1637762.172059,0.56,-0.396,0.404,-58.17,-4.0,9.0
1637762.212123,0.543,-0.437,0.357,-92.38,-4.03,28.72
1637762.252272,0.49,-0.503,0.387,-103.98,2.17,63.66
1637762.292686,0.44,-0.604,0.446,-90.21,-0.55,84.99
1637762.338855,0.498,-0.62,0.475,-51.97,-2.01,113.83
1637762.379041,0.466,-0.769,0.538,-25.36,20.02,88.75
1637762.419587,0.43,-0.719,0.529,-12.94,45.81,67.2
1637762.459684,0.378,-0.846,0.511,-4.33,53.53,49.62
1637762.502475,0.308,-0.855,0.464,13.58,59.88,36.81
1637762.542813,0.311,-0.94,0.449,21.45,70.19,36.93
1637762.588768,0.188,-0.887,0.534,40.71,77.88,38.61
1637762.629139,0.142,-0.833,0.622,62.04,55.27,41.41
1637762.669644,0.145,-0.789,0.621,76.24,44.56,45.78
1637762.712361,0.1,-0.831,0.697,79.5,45.84,37.51
1637762.753051,0.041,-0.765,0.769,66.26,41.14,42.79
1637762.798889,0.024,-0.725,0.934,74.1,19.56,42.54
1637762.839292,0.053,-0.714,0.835,48.37,15.41,29.42
1637762.882270,0.054,-0.67,0.794,15.47,14.01,24.84
1637762.932472,0.057,-0.668,0.777,-13.18,0.49,32.96
1637762.978622,0.22,-1.156,0.448,-91.62,9.34,-38.79
1637763.021915,-0.089,-0.965,0.699,-117.07,43.46,-50.36
1637763.072545,-0.121,-0.853,0.539,-50.78,18.92,-44.8
1637763.119015,-0.08,-0.774,0.36,-54.9,46.69,-47.91
1637763.159951,-0.046,-0.736,0.296,-118.35,78.04,-69.09
1637763.202616,-0.029,-0.68,0.258,-116.92,99.22,-63.14
1637763.252218,0.007,-0.691,0.144,-109.56,139.19,-14.53
1637763.293807,-0.061,-0.882,0.317,-59.72,180.55,10.19
1637763.339478,-0.141,-0.91,0.257,48.01,188.02,65.4
1637763.382699,-0.34,-1.068,0.364,81.58,231.94,72.33
1637763.429100,-0.513,-1.031,0.563,73.7,172.0,37.54
1637763.472440,-0.506,-0.929,0.648,77.58,150.85,34.82
1637763.519689,-0.439,-0.773,0.712,85.82,91.46,46.63
1637763.572762,-0.423,-0.662,0.626,53.25,45.75,41.26
1637763.618821,-0.485,-0.614,0.563,-3.81,38.61,28.32
1637763.659296,-0.524,-0.532,0.507,-31.01,34.03,31.92
1637763.712414,-0.663,-0.516,0.416,-49.29,49.62,77.46
1637763.759322,-0.708,-0.659,0.388,-88.69,57.65,107.3
1637763.799422,-0.751,-0.776,0.303,-34.85,40.77,63.26
1637763.844078,-0.839,-0.736,0.268,0.34,67.93,45.01
1637763.888608,-0.906,-0.71,0.344,41.9,72.45,29.3
1637763.928901,-0.943,-0.626,0.321,48.07,52.03,16.02
1637763.968968,-0.976,-0.585,0.304,38.21,40.35,7.54
1637764.018948,-0.825,-0.591,0.32,20.94,24.29,-5.13
1637764.058995,-0.702,-0.577,0.278,-13.67,-2.01,-25.94
1637764.112293,-0.742,-0.652,0.247,-23.83,-6.26,-17.94
1637764.168837,-0.795,-0.713,0.149,-3.81,-14.22,-6.04
1637764.218525,-0.87,-0.778,0.052,23.96,-7.08,1.28
1637764.258688,-0.751,-0.738,0.074,29.08,-10.04,-16.45
1637764.298746,-0.649,-0.654,0.067,24.38,-13.52,-31.92
1637764.338907,-0.606,-0.631,0.065,9.98,2.08,-29.51
1637764.389391,-0.601,-0.65,0.099,-7.81,24.41,-11.38
1637764.429535,-0.638,-0.704,0.151,-11.2,36.26,11.6
1637764.472493,-0.598,-0.748,0.215,-5.01,29.57,21.03
1637764.512568,-0.502,-0.659,0.179,-1.98,16.57,12.91
1637764.562977,-0.511,-0.518,0.106,-22.61,29.91,0.7
1637764.608509,-0.557,-0.428,0.091,-39.7,36.26,25.21
1637764.648996,-0.686,-0.427,0.033,-45.05,32.53,61.37
1637764.689307,-0.726,-0.356,-0.159,-67.51,25.39,62.23
1637764.732503,-0.937,-0.341,-0.19,-97.23,60.58,82.34
1637764.772665,-0.892,-0.411,-0.139,-55.6,76.33,98.97
1637764.819554,-0.858,-0.293,-0.324,-54.08,71.02,59.91
1637764.859582,-1.04,-0.183,-0.293,-8.3,88.26,42.09
1637764.902647,-1.29,-0.051,-0.385,64.39,135.44,107.79
1637764.952594,-1.273,-0.312,-0.243,139.26,108.1,158.24
1637764.999576,-1.114,-0.321,-0.148,116.49,58.41,112.67
1637765.043068,-1.103,-0.371,-0.147,58.57,14.37,68.94
1637765.089392,-1.028,-0.396,-0.334,1.71,-53.41,20.26
1637765.139178,-0.994,-0.326,-0.377,-55.3,-23.87,-11.6
1637765.179342,-0.961,-0.432,-0.269,-45.32,5.43,-12.54
1637765.219516,-0.995,-0.324,-0.219,-12.39,9.92,-24.69
1637765.259648,-1.041,-0.266,-0.214,-29.45,3.69,-36.1
1637765.302636,-0.98,-0.266,-0.099,-26.8,-27.89,-54.14
1637765.343123,-1.002,-0.092,-0.19,16.57,-47.67,-38.67
1637765.388870,-1.047,-0.135,-0.352,-22.1,-65.07,-20.63
1637765.429021,-0.996,-0.264,-0.375,-31.5,-73.52,-22.4
1637765.469308,-0.893,-0.261,-0.361,-34.03,-58.96,-28.87
1637765.512291,-0.843,-0.235,-0.283,-53.29,-41.54,-38.85
1637765.552925,-0.854,-0.216,-0.31,-56.37,-51.79,-39.12
1637765.598779,-0.884,-0.178,-0.369,-53.93,-35.74,-23.56
1637765.639935,-0.9,-0.193,-0.333,-51.12,-4.64,-12.18
1637765.689232,-0.919,-0.206,-0.325,-34.03,10.65,8.24
1637765.729609,-0.911,-0.231,-0.295,-22.46,19.9,11.66
1637765.772272,-0.886,-0.247,-0.24,-18.22,26.49,9.74
1637765.812650,-0.895,-0.214,-0.192,2.66,30.49,12.05
1637765.858395,-0.917,-0.193,-0.204,7.63,23.38,20.11
1637765.898429,-0.943,-0.205,-0.214,5.04,16.21,18.49
1637765.948549,-0.966,-0.194,-0.261,5.98,10.59,21.18
1637765.988600,-0.953,-0.195,-0.285,-8.24,13.98,21.73
1637766.029021,-0.937,-0.222,-0.274,-18.59,15.93,18.77
1637766.069623,-0.929,-0.246,-0.264,-17.88,19.44,20.17
1637766.122652,-0.968,-0.254,-0.266,-9.34,20.69,13.82
1637766.168644,-1.006,-0.268,-0.246,-10.59,17.09,7.29
1637766.218773,-0.987,-0.266,-0.256,-6.47,4.82,-1.74
1637766.258807,-0.967,-0.244,-0.252,-9.77,-1.5,-12.45
1637766.303066,-0.964,-0.222,-0.237,-2.11,-7.32,-13.43
1637766.348476,-0.944,-0.191,-0.264,-5.04,-10.99,-16.6
1637766.388590,-0.95,-0.188,-0.269,-7.51,-9.7,-15.02
1637766.432762,-0.946,-0.182,-0.272,-10.07,-8.55,-14.68
1637766.473095,-0.937,-0.176,-0.261,-11.14,-12.18,-13.98
1637766.519556,-0.927,-0.181,-0.274,-15.41,-16.39,-14.31
1637766.559859,-0.938,-0.189,-0.283,-16.57,-17.85,-13.43
1637766.612414,-0.929,-0.192,-0.334,-11.41,-24.78,-13.76
1637766.658660,-0.896,-0.193,-0.317,-18.25,-19.59,-17.58
1637766.698862,-0.877,-0.183,-0.303,-10.65,-13.28,-6.84
1637766.748663,-0.895,-0.202,-0.298,-7.9,0.34,5.95
1637766.798277,-0.941,-0.21,-0.296,-2.41,0.64,8.42
1637766.848374,-0.957,-0.225,-0.328,7.75,-2.87,13.0
1637766.898696,-0.917,-0.224,-0.326,16.97,-3.54,12.45
1637766.938779,-0.892,-0.231,-0.323,6.44,8.76,12.91
1637766.989251,-0.95,-0.254,-0.315,-11.72,20.72,3.11
1637767.042498,-0.975,-0.261,-0.246,-0.95,24.14,-1.74
1637767.094052,-0.923,-0.264,-0.192,7.48,12.24,-15.5
1637767.138676,-0.914,-0.21,-0.232,7.2,-8.79,-31.1
1637767.188073,-1.101,-0.081,-0.356,9.31,1.98,-27.92
1637767.238561,-0.923,-0.118,-0.219,18.19,8.06,-10.68
1637767.288712,-0.842,-0.173,-0.215,8.88,8.03,5.31
1637767.339045,-0.949,-0.284,-0.268,9.16,15.17,11.47
1637767.379638,-1.024,-0.312,-0.243,28.87,17.88,16.14
1637767.422737,-0.978,-0.361,-0.209,22.92,5.28,9.74
1637767.473236,-0.9,-0.348,-0.226,10.83,-18.49,-4.91
1637767.518836,-0.907,-0.331,-0.24,1.77,-20.48,-9.89
1637767.568714,-0.93,-0.32,-0.281,5.01,-24.87,-11.9
1637767.608939,-0.875,-0.294,-0.248,11.9,-27.89,-10.01
1637767.660097,-0.814,-0.274,-0.244,16.05,-25.48,2.04
1637767.709669,-0.856,-0.267,-0.288,-2.14,-11.69,6.9
1637767.759505,-0.939,-0.321,-0.261,-12.39,1.56,9.06
1637767.800968,-0.941,-0.348,-0.239,-2.08,1.1,12.15
1637767.848904,-0.921,-0.361,-0.203,3.39,-0.95,4.46
1637767.898663,-0.938,-0.313,-0.221,5.77,-5.89,-0.64
1637767.948178,-0.934,-0.267,-0.238,1.89,-0.82,0.03
1637767.993399,-0.915,-0.26,-0.206,1.04,8.91,5.07
1637768.043382,-0.918,-0.256,-0.176,-7.93,26.92,9.46
1637768.088613,-0.939,-0.255,-0.145,-11.54,17.73,3.17
1637768.128677,-0.981,-0.228,-0.177,-15.87,15.14,3.33
1637768.168793,-1.043,-0.23,-0.199,-14.74,12.3,3.88
1637768.212845,-1.018,-0.267,-0.165,-5.19,5.68,5.65
1637768.262361,-0.952,-0.25,-0.168,-1.31,-8.58,-1.22
1637768.312626,-0.937,-0.229,-0.209,-10.8,-10.86,-9.43
1637768.352769,-0.958,-0.196,-0.249,-7.6,-12.67,-10.86
1637768.394284,-0.928,-0.184,-0.263,-13.58,-6.16,-8.85
1637768.444027,-0.927,-0.211,-0.24,-19.17,0.7,-7.69
1637768.493689,-0.96,-0.231,-0.242,-9.89,2.62,-1.86
1637768.539618,-0.967,-0.248,-0.256,5.25,-2.47,-0.46
1637768.581831,-0.955,-0.218,-0.267,5.86,-7.32,-1.46
1637768.628269,-0.894,-0.255,-0.273,-8.15,-1.16,-0.98
1637768.668384,-0.896,-0.282,-0.271,-5.68,6.99,-0.89
1637768.709644,-0.92,-0.286,-0.258,-4.55,11.9,0.49
1637768.762574,-0.925,-0.285,-0.25,-5.22,10.59,-1.65
1637768.812487,-0.936,-0.272,-0.236,-8.33,9.25,-6.38
1637768.859658,-0.952,-0.261,-0.249,-5.13,6.2,-5.98
1637768.909141,-0.935,-0.26,-0.262,-0.06,2.17,-6.35
1637768.958844,-0.916,-0.246,-0.283,2.29,-0.18,-4.67
1637769.008475,-0.912,-0.237,-0.311,-2.99,6.35,0.46
1637769.052489,-0.892,-0.265,-0.302,-7.2,8.03,0.09
1637769.102200,-0.896,-0.286,-0.305,1.8,10.44,2.96
1637769.152453,-0.897,-0.3,-0.29,9.55,15.17,6.01
1637769.193050,-0.907,-0.307,-0.287,8.97,11.81,6.35
1637769.243997,-0.877,-0.346,-0.26,2.81,9.25,2.04
1637769.289424,-0.902,-0.317,-0.305,5.22,1.25,-0.76
1637769.338934,-0.919,-0.307,-0.351,-1.89,-1.04,-1.65
1637769.388683,-0.895,-0.316,-0.348,-6.84,7.11,2.56
1637769.439048,-0.848,-0.334,-0.275,0.0,14.53,8.15
1637769.489070,-0.858,-0.345,-0.236,-2.29,10.62,5.25
1637769.538908,-0.937,-0.314,-0.279,-5.86,-3.23,-3.57
1637769.589016,-0.973,-0.278,-0.358,-12.45,-11.14,-10.25
1637769.638980,-0.894,-0.3,-0.323,-3.27,-10.62,-8.12
1637769.689038,-0.838,-0.271,-0.337,4.49,-9.52,-2.81
1637769.739057,-0.9,-0.246,-0.365,-5.04,-2.32,-5.89
1637769.781226,-0.946,-0.225,-0.381,-13.0,5.16,-6.2
1637769.828634,-0.953,-0.236,-0.362,-22.06,13.31,-5.89
1637769.879142,-0.961,-0.216,-0.311,-16.48,17.67,-4.09
1637769.932405,-0.839,-0.27,-0.202,-13.86,5.37,-5.92
1637769.979439,-0.91,-0.247,-0.285,-3.57,-1.65,-8.85
1637770.026403,-1.076,-0.167,-0.356,9.34,-4.24,-6.5
1637770.069329,-0.971,-0.183,-0.326,14.31,-17.3,0.76
1637770.122674,-0.782,-0.234,-0.331,14.86,-27.04,3.39
1637770.173095,-0.779,-0.205,-0.427,-10.28,-15.53,-1.13
1637770.218601,-0.896,-0.183,-0.427,-29.51,9.67,6.65
1637770.258844,-0.896,-0.25,-0.421,-13.25,18.56,26.46
1637770.309254,-0.916,-0.316,-0.351,-0.7,28.14,32.65
1637770.359777,-0.928,-0.34,-0.317,-6.56,17.06,18.25
1637770.412700,-0.948,-0.339,-0.346,-16.79,-1.53,-3.27
1637770.462694,-0.926,-0.276,-0.388,1.46,-11.35,-9.7
1637770.512832,-0.86,-0.21,-0.376,-5.8,-1.16,-10.62
1637770.562619,-0.864,-0.223,-0.342,-7.63,9.74,-2.26
1637770.612662,-0.926,-0.221,-0.341,-0.58,15.72,2.72
1637770.662710,-0.96,-0.224,-0.324,-1.37,2.81,-3.85
1637770.712472,-0.912,-0.22,-0.343,-5.62,-8.33,-11.17
1637770.762937,-0.886,-0.201,-0.373,0.79,-12.85,-10.65
1637770.813029,-0.868,-0.186,-0.385,4.15,-5.1,-2.69
1637770.878088,-0.892,-0.196,-0.374,3.97,0.55,4.7
1637770.922368,-0.9,-0.217,-0.372,-4.52,2.69,3.85
1637770.969468,-0.892,-0.234,-0.374,-6.81,-2.87,3.14
1637771.019612,-0.889,-0.218,-0.376,-6.71,-1.83,4.03
1637771.069698,-0.918,-0.173,-0.398,-17.15,-0.89,7.17
1637771.119534,-0.896,-0.193,-0.437,-41.05,0.76,9.46
1637771.169404,-0.816,-0.339,-0.393,-50.54,9.03,6.29
1637771.222738,-0.939,-0.341,-0.296,-12.6,2.9,-26.98
1637771.268655,-1.091,-0.151,-0.355,23.16,-34.49,-44.53
1637771.308860,-0.969,-0.098,-0.396,30.85,-48.55,-47.21
1637771.349341,-0.857,-0.045,-0.404,20.97,-40.71,-45.66
1637771.389374,-0.831,-0.034,-0.414,9.83,-16.39,-26.89
1637771.439297,-0.868,-0.157,-0.345,14.34,13.03,1.4
1637771.482490,-0.877,-0.258,-0.342,23.19,17.49,23.04
1637771.522759,-0.828,-0.33,-0.289,9.49,30.85,16.45
1637771.568421,-0.921,-0.281,-0.211,8.76,27.22,13.31
1637771.608753,-0.972,-0.276,-0.301,-2.93,10.28,21.49
1637771.658697,-0.986,-0.344,-0.314,-8.79,7.87,20.45
1637771.708648,-0.897,-0.333,-0.276,8.3,-3.66,19.56
1637771.759550,-0.824,-0.317,-0.312,4.64,-13.76,14.77
1637771.809134,-0.847,-0.296,-0.329,-5.55,-10.04,9.86
1637771.859176,-0.929,-0.331,-0.394,-7.6,-1.98,12.15
1637771.909135,-0.98,-0.361,-0.363,-4.7,7.54,8.24
1637771.958902,-0.912,-0.358,-0.27,0.55,-0.98,-3.02
1637772.009343,-0.893,-0.281,-0.299,0.06,-15.47,-17.52
1637772.049424,-0.921,-0.195,-0.322,5.52,-9.58,-14.04
1637772.099107,-0.905,-0.183,-0.319,1.95,2.53,-3.02
1637772.148784,-0.901,-0.235,-0.258,2.87,10.04,4.21
1637772.198822,-0.938,-0.234,-0.236,1.4,10.35,3.39
1637772.248575,-0.973,-0.233,-0.246,-2.96,-3.42,-2.17
1637772.288708,-0.959,-0.242,-0.289,5.52,-11.66,-2.23
1637772.338658,-0.917,-0.23,-0.32,12.63,-12.51,-1.25
1637772.378778,-0.89,-0.222,-0.34,2.75,-10.9,-3.66
1637772.423012,-0.88,-0.24,-0.344,-0.95,-9.7,-3.02
1637772.472628,-0.872,-0.238,-0.36,5.86,-1.83,2.47
1637772.519660,-0.899,-0.235,-0.334,1.95,7.42,4.55
1637772.569266,-0.933,-0.24,-0.331,1.74,8.27,6.56
1637772.619379,-0.93,-0.25,-0.294,4.39,8.7,9.92
1637772.668525,-0.895,-0.275,-0.288,-1.53,-0.89,5.92
1637772.712972,-0.876,-0.265,-0.316,-4.43,2.11,3.88
1637772.762674,-0.799,-0.28,-0.244,-5.49,12.36,-0.82
1637772.812885,-1.026,-0.199,-0.34,-10.47,36.96,5.22
1637772.860024,-1.054,-0.254,-0.186,13.49,37.29,14.01
1637772.909555,-0.909,-0.291,-0.147,27.25,7.2,12.02
1637772.959778,-0.847,-0.249,-0.209,17.21,-1.46,-3.94
1637773.009153,-1.021,-0.194,-0.307,9.52,-3.11,-7.02
1637773.059147,-0.973,-0.245,-0.304,7.87,-3.94,-8.0
1637773.108967,-0.883,-0.201,-0.283,24.63,-18.68,1.16
1637773.149271,-0.908,-0.197,-0.402,-1.5,-16.91,2.04
1637773.189314,-0.918,-0.265,-0.418,-28.87,-13.43,-3.97
1637773.229327,-0.89,-0.291,-0.427,-28.87,-16.02,-6.04
1637773.279624,-0.822,-0.292,-0.414,-21.27,1.1,-9.92
1637773.319624,-0.898,-0.233,-0.38,-18.65,3.72,-10.01
1637773.372333,-0.882,-0.252,-0.398,-20.23,-11.47,-7.02
1637773.422870,-0.926,-0.226,-0.484,-29.6,-1.74,-4.73
1637773.472944,-0.865,-0.278,-0.363,-17.55,7.29,-5.68
1637773.522827,-0.858,-0.224,-0.359,-9.67,4.03,-10.25
1637773.572950,-0.877,-0.202,-0.366,-5.49,3.85,-13.15
1637773.618433,-0.934,-0.166,-0.362,5.13,4.67,-13.58
1637773.662829,-0.997,-0.116,-0.394,19.78,5.68,-7.81
1637773.712825,-0.956,-0.098,-0.362,29.66,5.22,2.5
1637773.758638,-0.964,-0.084,-0.395,29.21,12.42,12.24
1637773.809844,-0.873,-0.132,-0.27,16.66,10.93,7.75
1637773.859902,-0.81,-0.165,-0.317,15.87,0.03,16.45
1637773.912960,-0.831,-0.172,-0.368,8.15,13.43,32.87
1637773.953048,-0.924,-0.246,-0.393,-0.06,28.84,43.46
1637773.994573,-0.973,-0.359,-0.353,-4.24,36.01,48.59
1637774.039479,-0.89,-0.439,-0.279,-3.63,10.71,31.95
1637774.088717,-0.858,-0.409,-0.348,-11.81,-8.0,16.45
1637774.139040,-0.956,-0.402,-0.421,-17.4,-5.55,2.87
1637774.189242,-0.954,-0.375,-0.348,-8.7,0.09,-14.4
1637774.239583,-0.919,-0.235,-0.299,-9.31,-11.23,-30.4
1637774.282432,-0.936,-0.153,-0.313,-12.18,-21.15,-31.92
1637774.323003,-0.936,-0.115,-0.344,-11.69,-20.97,-21.36
1637774.369693,-0.845,-0.183,-0.29,-12.57,-6.53,-8.79
1637774.418648,-0.895,-0.172,-0.234,-1.53,-6.74,-10.38
1637774.458936,-0.95,-0.138,-0.254,-2.14,-10.8,-12.7
1637774.509148,-0.937,-0.119,-0.234,-12.82,-14.74,-20.17
1637774.549329,-0.968,-0.082,-0.237,-8.24,-18.34,-21.49
1637774.602538,-1.043,-0.002,-0.254,3.33,-26.95,-12.67
1637774.642548,-1.038,0.036,-0.245,19.65,-36.84,8.03
1637774.682744,-1.017,-0.014,-0.348,21.58,-45.75,36.32
1637774.728768,-0.94,-0.156,-0.473,-0.55,-36.96,45.81
1637774.769118,-0.882,-0.22,-0.467,-22.19,-12.36,33.2
1637774.819474,-0.891,-0.224,-0.441,-35.13,9.77,24.9
1637774.862575,-0.941,-0.247,-0.513,-43.06,24.81,28.2
1637774.903144,-0.899,-0.388,-0.456,-66.59,38.76,25.54
1637774.948986,-0.91,-0.374,-0.399,-53.44,65.89,24.87
1637774.989206,-0.905,-0.246,-0.374,-49.56,66.19,-19.07
1637775.029470,-0.998,-0.162,-0.271,-36.65,52.06,-38.64
1637775.069876,-1.016,-0.087,-0.318,-1.83,30.98,-21.79
1637775.109884,-0.975,-0.084,-0.352,-3.6,20.75,-17.46
1637775.163007,-0.963,-0.08,-0.313,-10.13,21.27,-20.54
1637775.209442,-0.946,-0.096,-0.277,-10.74,11.96,-20.6
1637775.259563,-0.922,-0.09,-0.273,-9.49,-0.43,-25.3
1637775.312828,-0.922,-0.057,-0.301,-15.93,-14.4,-30.82
1637775.359156,-0.91,-0.038,-0.342,-20.6,-19.96,-27.68
1637775.412345,-0.896,-0.053,-0.358,-15.02,-22.03,-13.7
1637775.462811,-0.942,-0.067,-0.415,-6.71,-18.59,2.29
1637775.508287,-0.948,-0.111,-0.432,-10.19,-16.36,5.89
1637775.558944,-0.854,-0.176,-0.416,-18.68,-20.23,0.73
1637775.609366,-0.816,-0.19,-0.451,-20.36,-21.97,-9.64
1637775.649514,-0.864,-0.184,-0.498,-19.44,-14.25,-9.34
1637775.702610,-0.93,-0.192,-0.522,-10.07,4.94,-6.26
1637775.749374,-0.879,-0.249,-0.485,2.26,4.61,-11.11
1637775.789484,-0.892,-0.407,-0.487,35.8,9.83,-23.07
1637775.832444,-0.909,-0.624,-0.518,74.53,40.01,-37.87
1637775.872814,-1.086,-0.817,-0.596,61.59,81.42,-116.73
1637775.919549,-1.143,-0.679,-0.499,-33.3,26.98,-246.16
1637775.962443,-1.054,-0.714,-0.419,18.22,-7.05,-201.48
1637776.009652,-1.031,-0.894,-0.291,151.22,-29.82,-102.97
1637776.052320,-1.089,-0.89,-0.09,249.28,-92.56,-49.65
1637776.099512,-1.047,-0.807,0.234,305.0,-199.44,-10.5
1637776.144632,-0.912,-0.564,0.296,335.92,-255.2,26.0
1637776.194262,-0.678,-0.271,0.364,204.84,-281.01,16.21
1637776.239154,-0.295,-0.081,0.212,-10.19,-207.83,-34.21
1637776.282556,-0.361,-0.36,0.503,-75.78,-107.36,-26.76
1637776.328823,-0.317,-0.581,0.483,-4.61,-124.64,1.92
1637776.369452,-0.241,-0.701,0.387,55.97,-95.86,41.29
1637776.409820,-0.163,-0.624,0.352,50.08,-38.73,45.32
1637776.452514,-0.151,-0.548,0.401,19.68,7.6,41.84
1637776.494750,-0.228,-0.461,0.58,-14.31,52.22,56.4
1637776.539079,-0.206,-0.626,0.543,-50.69,21.55,47.33
1637776.579211,-0.151,-0.682,0.595,-78.71,44.8,33.45
1637776.619608,-0.3,-0.673,0.802,-44.83,85.73,13.58
1637776.659813,-0.45,-0.463,1.052,-38.24,75.87,-13.03
1637776.702947,-0.547,-0.432,1.038,-64.55,24.32,1.68
1637776.752863,-0.57,-0.522,0.96,-76.05,-24.05,2.26
1637776.794662,-0.575,-0.607,0.894,-104.86,-50.57,-9.13
1637776.839317,-0.679,-0.684,0.819,-90.27,-106.66,-5.46
1637776.882484,-0.584,-0.733,0.554,-82.49,-163.91,13.49
1637776.929269,-0.638,-1.179,3.496,-182.9,353.83,25.97
1637776.969640,-0.989,-0.277,0.555,60.09,-109.53,23.04
1637777.012944,-0.349,-1.088,0.198,-4.85,-17.46,93.02
1637777.058517,-0.371,-1.267,0.167,-57.65,-5.92,-35.55
1637777.098725,-0.299,-0.946,0.095,44.22,45.41,-62.07
1637777.138988,-0.281,-0.758,0.063,73.52,100.16,-19.93
1637777.179426,-0.42,-0.861,0.401,80.32,109.81,0.58
1637777.219669,-0.494,-0.795,0.489,88.02,91.74,2.81
1637777.262577,-0.562,-0.768,0.628,44.22,81.58,-26.52
1637777.303073,-0.563,-0.673,0.769,26.4,62.65,-34.39
1637777.348805,-0.515,-0.642,0.808,8.48,10.96,-13.82
1637777.398745,-0.503,-0.631,0.806,-6.68,-16.63,-5.92
1637777.449257,-0.52,-0.576,0.843,-18.83,-46.69,-0.89
1637777.489380,-0.541,-0.556,0.857,-40.71,-82.98,13.31
1637777.532576,-0.583,-0.539,0.78,-36.96,-119.14,31.1
1637777.579275,-0.555,-0.548,0.577,-73.52,-160.47,37.9
1637777.622489,0.798,-1.862,-2.581,-72.97,-100.1,67.38
1637777.669086,-0.612,-0.17,0.847,54.99,15.02,22.28
1637777.712330,-0.475,-0.637,0.663,278.63,-80.51,267.65
1637777.762574,-0.266,-0.856,0.397,129.34,-104.13,144.63
1637777.808803,-0.599,-0.935,0.644,15.96,118.84,-24.45
1637777.848902,-0.718,-0.786,0.721,0.06,81.48,-83.83
1637777.889350,-0.702,-0.653,0.561,91.56,83.13,-2.41
1637777.929602,-0.855,-0.722,0.794,3.51,86.34,-73.79
1637777.972691,-0.796,-0.659,0.867,-22.98,59.54,-103.89
1637778.019614,-0.68,-0.653,0.784,-29.91,39.25,-87.56
1637778.072826,-0.577,-0.634,0.797,-61.13,29.36,-109.13
1637778.119195,-0.532,-0.565,0.825,-40.13,10.71,-85.51
1637778.159463,-0.468,-0.472,0.736,-40.5,-24.08,-64.61
1637778.199558,-0.468,-0.481,0.712,-44.01,-36.62,-43.76
1637778.244106,-0.515,-0.46,0.708,-47.18,-58.6,-20.84
1637778.288900,-0.564,-0.494,0.681,-60.76,-95.16,12.42
1637778.329359,-0.576,-0.55,0.565,-68.82,-137.18,37.26
1637778.372485,-0.604,-0.553,0.389,-81.76,-167.03,66.53
1637778.419391,0.019,-1.242,-0.423,120.73,-41.84,11.11
1637778.459920,-0.681,-0.918,0.396,67.84,-3.81,167.49
1637778.502692,-0.501,-1.19,0.292,60.3,-14.44,119.91
1637778.544401,-0.443,-1.199,0.104,32.96,28.69,14.74
1637778.588928,-0.516,-0.902,0.246,71.26,98.54,-51.27
1637778.629496,-0.596,-0.792,0.407,72.39,96.62,-34.18
1637778.672472,-0.601,-0.71,0.497,76.91,87.77,-29.97
1637778.712598,-0.637,-0.661,0.596,64.7,74.59,-29.08
1637778.758434,-0.641,-0.569,0.657,54.23,54.96,-33.66
1637778.798811,-0.663,-0.506,0.763,28.2,43.67,-36.23
1637778.839312,-0.647,-0.447,0.816,8.48,12.97,-25.18
1637778.893662,-0.656,-0.39,0.872,-28.78,-14.86,-15.44
1637778.939134,-0.698,-0.416,0.859,-67.81,-62.78,-3.63
1637778.989429,-0.676,-0.48,0.679,-88.66,-108.86,18.31
1637779.039130,-0.697,-0.58,0.52,-117.74,-150.98,31.13
1637779.082370,-0.023,-1.26,-2.017,45.35,-28.5,40.53
1637779.128744,-0.734,-1.027,0.57,4.12,19.62,30.98
1637779.169124,-0.465,-1.168,0.43,1.28,43.61,-2.87
1637779.219653,-0.352,-1.031,0.142,14.77,42.05,-37.2
1637779.262743,-0.4,-0.896,0.206,45.78,74.68,-40.19
1637779.309458,-0.477,-0.753,0.359,58.72,82.37,-30.21
1637779.362502,-0.539,-0.759,0.476,49.44,69.34,-18.16
1637779.402787,-0.585,-0.753,0.524,42.3,58.35,-22.22
1637779.448765,-0.589,-0.681,0.635,31.46,46.54,-27.71
1637779.489197,-0.562,-0.605,0.704,22.46,28.23,-24.26
1637779.529404,-0.56,-0.546,0.762,11.47,7.39,-11.41
1637779.579594,-0.594,-0.489,0.812,-24.26,-25.94,-4.0
1637779.632658,-0.615,-0.484,0.749,-56.67,-65.31,11.23
1637779.679121,-0.641,-0.541,0.603,-82.0,-105.81,29.45
1637779.721935,-0.688,-0.622,0.47,-88.02,-134.95,42.12
1637779.762782,-0.158,-1.003,-0.985,-49.62,-273.72,87.74
1637779.809128,-0.389,-0.504,-0.024,22.31,-9.16,42.79
1637779.849314,-0.596,-0.92,0.63,3.14,28.32,56.58
1637779.892295,-0.394,-1.147,0.24,31.65,-37.08,54.51
1637779.932423,-0.331,-1.09,0.068,45.63,23.56,4.49
1637779.972833,-0.456,-0.888,0.165,38.67,80.78,-47.06
1637780.019244,-0.591,-0.777,0.36,58.72,89.51,-26.18
1637780.060360,-0.588,-0.772,0.427,64.88,76.97,-14.5
1637780.102778,-0.655,-0.729,0.563,46.11,82.03,-33.3
1637780.143282,-0.678,-0.614,0.753,27.68,67.14,-43.7
1637780.188794,-0.709,-0.438,0.96,11.08,29.21,-32.41
1637780.228872,-0.707,-0.351,0.945,-27.95,-24.38,-16.63
1637780.269265,-0.695,-0.411,0.798,-45.56,-73.58,13.34
1637780.309777,-0.689,-0.5,0.663,-52.25,-104.34,34.36
1637780.352847,-0.687,-0.55,0.552,-76.02,-120.58,32.84
1637780.399560,-0.863,-0.639,0.526,-94.82,-152.1,47.55
1637780.443669,-0.315,-1.631,1.679,-33.42,24.41,45.01
1637780.489132,-0.609,-0.974,0.318,72.73,-9.7,113.8
1637780.539481,-0.504,-1.201,0.267,18.28,-3.81,32.59
1637780.582218,-0.512,-1.079,0.153,43.64,48.92,-24.63
1637780.623017,-0.543,-0.862,0.219,46.97,80.45,-60.18
1637780.668860,-0.606,-0.732,0.4,51.91,84.26,-46.3
1637780.709740,-0.641,-0.686,0.512,46.54,77.97,-41.35
1637780.749973,-0.696,-0.623,0.647,44.07,64.85,-41.08
1637780.793710,-0.742,-0.499,0.841,43.43,45.05,-34.12
1637780.839134,-0.727,-0.389,0.938,1.16,-14.28,-20.39
1637780.889207,-0.72,-0.393,0.871,-44.56,-68.85,-6.84
1637780.929434,-0.668,-0.43,0.725,-60.67,-104.28,12.12
1637780.972655,-0.651,-0.491,0.615,-87.5,-125.89,18.89
1637781.019322,-0.749,-0.554,0.44,-100.5,-157.35,38.45
1637781.062550,-0.514,-1.301,2.334,-55.67,100.83,1.62
1637781.108946,-0.709,-0.849,0.037,62.93,-20.23,105.47
1637781.149134,-0.456,-1.159,0.2,29.91,-27.13,69.89
1637781.189665,-0.402,-1.09,0.024,34.94,44.34,3.39
1637781.232628,-0.522,-0.902,0.172,32.2,99.19,-52.19
1637781.279007,-0.619,-0.753,0.405,55.21,107.27,-34.27
1637781.319680,-0.614,-0.717,0.478,51.24,86.58,-21.64
1637781.362650,-0.651,-0.678,0.528,49.5,77.33,-22.74
1637781.403034,-0.692,-0.62,0.636,47.46,61.43,-20.6
1637781.448773,-0.694,-0.543,0.741,38.7,32.32,-12.02
1637781.488977,-0.704,-0.475,0.8,12.05,5.86,-10.53
1637781.528993,-0.735,-0.442,0.839,-18.92,-21.49,-10.53
1637781.569184,-0.775,-0.475,0.811,-53.96,-62.53,-2.75
1637781.609327,-0.761,-0.505,0.678,-71.35,-103.92,7.23
1637781.652577,-0.748,-0.563,0.544,-93.48,-135.81,15.53
1637781.699619,-1.031,-0.521,-0.2,-121.8,-241.4,35.37
1637781.743605,-0.023,-1.41,-1.115,100.5,-147.95,-9.16
1637781.789002,-0.573,-0.917,0.173,51.52,55.79,36.38
1637781.829216,-0.435,-1.034,0.25,20.42,6.74,12.7
1637781.869601,-0.414,-0.993,0.078,44.83,36.41,4.15
1637781.910032,-0.504,-0.853,0.229,49.99,82.13,-28.05
1637781.952687,-0.625,-0.784,0.431,60.98,83.01,-19.01
1637781.998222,-0.611,-0.715,0.501,54.9,57.19,-10.56
1637782.038808,-0.636,-0.694,0.564,46.3,46.85,-16.27
1637782.079119,-0.625,-0.622,0.627,37.57,34.73,-22.71
1637782.119586,-0.638,-0.566,0.721,25.15,21.15,-18.52
1637782.172775,-0.648,-0.501,0.76,2.75,-11.08,-11.6
1637782.212865,-0.682,-0.465,0.769,-26.83,-42.45,1.04
1637782.258503,-0.742,-0.483,0.724,-60.24,-85.82,13.03
1637782.299199,-0.75,-0.502,0.639,-80.9,-121.28,23.19
1637782.342847,-0.711,-0.537,0.454,-103.43,-150.4,34.55
1637782.389449,-0.011,-1.506,0.914,55.91,-31.65,-10.83
1637782.429572,-0.589,-0.657,0.318,53.35,-1.13,71.38
1637782.470067,-0.464,-1.042,0.257,51.3,6.84,64.12
1637782.512710,-0.458,-1.063,0.089,41.41,28.05,20.17
1637782.553117,-0.511,-0.906,0.157,43.95,78.4,-30.21
1637782.598736,-0.64,-0.789,0.386,56.89,96.96,-29.3
1637782.639132,-0.655,-0.736,0.499,66.1,80.6,-18.4
1637782.679750,-0.683,-0.698,0.594,58.32,68.12,-23.16
1637782.722816,-0.679,-0.616,0.665,39.46,50.14,-37.42
1637782.763055,-0.675,-0.517,0.753,31.86,34.76,-31.13
1637782.809159,-0.683,-0.441,0.793,5.86,-3.39,-18.71
1637782.860011,-0.709,-0.382,0.801,-24.38,-37.05,-3.75
1637782.912709,-0.739,-0.427,0.72,-68.09,-82.71,11.2
1637782.953340,-0.751,-0.472,0.611,-86.76,-112.89,21.94
1637783.002721,-0.796,-0.595,0.518,-105.23,-149.3,37.29
1637783.044141,-1.136,-1.072,2.252,-151.74,93.69,43.86
1637783.089155,-0.574,-0.657,0.285,78.49,41.66,39.74
1637783.129304,-0.527,-1.021,0.384,20.54,13.21,30.21
1637783.169758,-0.477,-1.03,0.154,25.12,19.68,11.23
1637783.209898,-0.493,-0.921,0.176,34.7,58.14,-25.36
1637783.252867,-0.587,-0.829,0.312,43.46,80.36,-34.97
1637783.298959,-0.612,-0.775,0.423,52.74,65.28,-21.61
1637783.339385,-0.647,-0.752,0.48,52.16,62.96,-24.23
1637783.379665,-0.648,-0.673,0.549,43.0,55.45,-39.12
1637783.422752,-0.653,-0.578,0.642,37.97,46.88,-35.83
1637783.462979,-0.656,-0.528,0.715,28.93,26.89,-24.63
1637783.509280,-0.658,-0.464,0.757,5.16,-4.79,-15.84
1637783.560072,-0.654,-0.417,0.792,-24.26,-37.45,-0.4
1637783.612606,-0.722,-0.411,0.778,-54.63,-73.49,14.22
1637783.652864,-0.765,-0.493,0.694,-83.86,-114.54,23.99
1637783.699605,-0.75,-0.587,0.502,-96.56,-157.32,41.72
1637783.743788,-0.528,-1.043,-0.47,-99.8,-202.34,66.93
1637783.789328,-0.619,-0.392,-0.504,-50.97,-3.27,54.6
1637783.829646,-0.438,-0.962,0.415,57.92,49.56,43.18
1637783.869825,-0.443,-0.983,0.238,8.73,29.85,-9.64
1637783.912655,-0.475,-0.899,0.212,38.58,57.19,-18.92
1637783.953156,-0.5,-0.799,0.333,54.87,79.71,-24.32
1637783.999074,-0.605,-0.718,0.473,47.49,89.91,-34.21
1637784.039673,-0.677,-0.703,0.606,50.94,71.26,-20.75
1637784.079900,-0.652,-0.65,0.612,45.35,46.45,-20.33
1637784.122681,-0.641,-0.572,0.662,34.33,35.89,-26.67
1637784.168955,-0.632,-0.505,0.71,17.0,9.46,-15.84
1637784.218597,-0.635,-0.491,0.71,-7.32,-17.7,1.31
1637784.259197,-0.655,-0.496,0.701,-28.99,-36.29,7.66
1637784.310455,-0.686,-0.517,0.667,-54.17,-67.38,18.77
1637784.352825,-0.696,-0.555,0.597,-67.42,-95.83,34.97
1637784.399308,-0.674,-0.67,0.435,-79.65,-129.0,51.91
1637784.443637,0.905,-2.165,-2.269,9.83,26.52,16.05
1637784.488851,-0.58,-0.687,0.481,25.15,26.92,8.33
1637784.528952,-0.633,-0.788,0.819,8.48,44.25,21.42
1637784.578911,-0.517,-0.96,0.405,9.37,-7.23,18.46
1637784.619481,-0.503,-0.876,0.438,-2.17,1.53,-15.05
1637784.668371,-0.509,-0.758,0.414,5.98,-1.92,-9.67
1637784.712979,-0.529,-0.754,0.405,1.77,-2.35,-6.62
1637784.771327,-0.525,-0.717,0.4,-3.57,0.67,-10.22
1637784.822537,-0.52,-0.7,0.411,-1.04,1.04,-1.71
1637784.869430,-0.506,-0.745,0.407,-2.23,1.71,5.58
1637784.919052,-0.505,-0.768,0.417,-3.17,2.93,5.95
1637784.968977,-0.495,-0.782,0.429,1.98,2.44,5.83
1637785.019181,-0.515,-0.782,0.435,2.56,2.04,5.4
1637785.068842,-0.516,-0.785,0.424,1.31,0.61,4.33
1637785.112605,-0.526,-0.776,0.42,-2.66,0.37,0.4
1637785.159896,-0.525,-0.766,0.428,-2.69,0.58,-0.89
1637785.209498,-0.517,-0.757,0.412,-2.04,0.27,-1.1
1637785.259202,-0.522,-0.75,0.414,1.16,0.55,0.92
1637785.308727,-0.521,-0.749,0.408,1.04,1.74,0.98
1637785.353136,-0.521,-0.744,0.417,0.76,1.34,3.14
1637785.402955,-0.519,-0.754,0.408,2.14,0.24,4.91
1637785.449379,-0.515,-0.764,0.377,0.73,4.82,4.79
1637785.499359,-0.544,-0.796,0.313,1.37,13.61,6.1
1637785.549374,-0.525,-0.788,0.26,6.29,23.71,-3.94
1637785.589606,-0.471,-0.761,0.195,12.36,31.62,-14.98
1637785.632472,-0.434,-0.752,0.143,16.24,44.59,-19.9
1637785.672739,-0.514,-0.845,0.166,37.26,63.91,10.56
1637785.713148,-0.667,-0.9,0.421,50.42,58.38,34.58
1637785.758896,-0.594,-0.831,0.517,20.75,23.35,-0.7
1637785.809469,-0.401,-0.695,0.441,2.08,3.02,-19.2
1637785.859746,-0.406,-0.722,0.318,13.18,6.65,2.14
1637785.912688,-0.531,-0.861,0.304,24.96,11.66,17.64
1637785.958707,-0.596,-0.923,0.322,17.33,7.69,3.2
1637786.008872,-0.554,-0.894,0.304,-4.73,0.31,-19.62
1637786.059075,-0.526,-0.833,0.374,-10.86,-9.4,-23.1
1637786.110487,-0.563,-0.716,0.519,-20.23,-9.22,-18.89
1637786.162932,-0.759,-0.74,0.639,-16.54,-10.1,28.08
1637786.208840,-0.812,-0.703,0.568,-19.26,-38.54,21.61
1637786.248969,-0.482,-0.625,0.545,-11.23,-52.74,3.36
1637786.289412,-0.406,-0.546,0.637,-30.4,-42.3,-19.1
1637786.329547,-0.422,-0.509,0.706,-13.61,-41.57,11.96
1637786.369734,-0.41,-0.57,0.606,0.03,-50.11,38.12
1637786.409773,-0.389,-0.643,0.486,-12.36,-49.96,38.0
1637786.458847,-0.412,-0.668,0.488,-22.98,-44.16,32.23
1637786.509058,-0.48,-0.668,0.47,-11.23,-34.64,40.59
1637786.549454,-0.501,-0.697,0.491,-21.24,-36.56,36.96
1637786.594052,-0.519,-0.704,0.512,-32.87,-35.31,28.78
1637786.639202,-0.589,-0.722,0.523,-42.63,-24.45,30.27
1637786.689660,-0.755,-0.699,0.514,-46.11,-0.58,45.53
1637786.729663,-0.869,-0.706,0.508,-40.96,-3.08,62.01
1637786.772408,-0.736,-0.7,0.401,-49.47,-28.53,18.37
1637786.812813,-0.612,-0.571,0.383,-62.96,-22.71,-13.06
1637786.852940,-0.597,-0.528,0.502,-41.99,-13.89,10.74
1637786.899005,-0.658,-0.563,0.522,-17.58,-21.64,38.39
1637786.939477,-0.694,-0.607,0.566,-18.71,-31.1,32.29
1637786.979699,-0.595,-0.551,0.57,-19.47,-46.05,21.3
1637787.022874,-0.59,-0.475,0.548,-31.46,-51.88,29.36
1637787.063066,-0.548,-0.481,0.43,-49.13,-70.65,44.1
1637787.109825,-0.503,-0.538,0.234,-125.0,-68.54,15.26
1637787.163070,-0.631,-0.653,0.261,-177.01,-77.3,-10.93
1637787.205125,-0.747,-0.704,0.266,-142.92,-65.89,3.36
1637787.252333,-0.933,-0.92,0.603,-82.22,-107.94,47.12
1637787.299143,-0.749,-0.814,0.373,-33.42,-143.86,46.45
1637787.339927,-0.36,-0.622,0.227,-64.79,-117.5,23.19
1637787.382979,-0.654,-0.668,0.478,-81.61,-69.03,11.14
1637787.423315,-0.647,-0.563,0.456,21.49,-86.09,12.27
1637787.469608,-0.611,-0.588,0.441,50.78,-93.2,42.85
1637787.509744,-0.664,-0.608,0.502,75.23,-60.43,47.18
1637787.553031,-0.627,-0.673,0.474,85.45,-41.23,45.41
1637787.594333,-0.553,-0.696,0.438,85.88,-39.98,45.14
1637787.639074,-0.456,-0.675,0.547,29.48,-9.8,16.91
1637787.689567,-0.483,-0.51,0.702,45.59,-3.51,13.31
1637787.729701,-0.577,-0.401,0.777,45.59,11.9,10.62
1637787.772739,-0.67,-0.4,0.857,50.26,20.78,18.13
1637787.813004,-0.661,-0.422,0.741,33.45,4.27,23.1
1637787.853145,-0.615,-0.497,0.672,14.07,1.89,24.87
1637787.893688,-0.583,-0.497,0.645,13.12,9.7,26.43
1637787.939256,-0.62,-0.405,0.735,18.77,2.9,23.26
1637787.988958,-0.631,-0.384,0.769,9.77,-3.6,20.81
1637788.029099,-0.627,-0.412,0.725,10.56,-6.44,18.77
1637788.079088,-0.655,-0.423,0.703,9.52,-5.16,13.89
1637788.119093,-0.647,-0.383,0.715,10.59,-1.5,9.49
1637788.169016,-0.638,-0.353,0.709,-1.92,9.74,7.32
1637788.209078,-0.641,-0.342,0.715,8.79,4.52,-3.88
1637788.253077,-0.658,-0.318,0.692,10.32,-3.11,-2.44
1637788.303113,-0.65,-0.315,0.722,5.28,1.19,-1.4
1637788.349465,-0.655,-0.3,0.721,0.0,1.31,-0.61
1637788.399111,-0.648,-0.33,0.709,-1.62,2.69,-0.21
1637788.448785,-0.629,-0.337,0.724,-3.94,3.08,0.61
1637788.488788,-0.646,-0.322,0.722,1.62,-1.71,-0.43
1637788.529884,-0.659,-0.322,0.723,-0.09,-2.47,-0.24
1637788.579593,-0.65,-0.303,0.698,0.49,-3.08,0.64
1637788.619919,-0.661,-0.312,0.691,-1.1,-1.37,2.11
1637788.668577,-0.658,-0.321,0.708,5.4,-2.04,1.37
1637788.712992,-0.642,-0.329,0.701,0.27,-0.76,1.8
1637788.759884,-0.654,-0.329,0.72,-0.43,2.62,0.7
1637788.809713,-0.662,-0.315,0.714,-0.76,2.78,-0.37
1637788.859360,-0.641,-0.313,0.722,-1.4,3.36,0.15
1637788.909285,-0.637,-0.298,0.717,-1.68,-1.56,0.31
1637788.958516,-0.647,-0.321,0.722,-5.95,-2.38,4.88
1637789.003575,-0.648,-0.343,0.719,-6.62,-1.16,7.08
1637789.049714,-0.654,-0.333,0.702,-5.16,-3.69,6.99
1637789.099193,-0.663,-0.31,0.725,-7.29,-1.77,2.96
1637789.148965,-0.641,-0.307,0.741,-11.08,-1.8,5.68
1637789.199250,-0.626,-0.3,0.741,-16.42,-3.02,5.25
1637789.249379,-0.604,-0.313,0.79,-18.43,-6.23,10.04
1637789.299705,-0.628,-0.317,0.833,-25.39,-10.93,7.57
1637789.339966,-0.651,-0.333,0.811,-39.4,-16.24,9.37
1637789.382743,-0.637,-0.345,0.729,-54.6,-17.37,15.87
1637789.423349,-0.615,-0.396,0.691,-67.72,-18.74,19.99
1637789.469590,-0.552,-0.452,0.691,-73.92,-26.09,9.86
1637789.510906,-0.556,-0.447,0.723,-78.04,-26.43,5.8
1637789.559942,-0.482,-0.531,0.664,-81.67,-11.54,3.72
1637789.613169,-0.502,-0.511,0.647,-105.9,17.67,4.06
1637789.659455,-0.517,-0.574,0.545,-46.63,19.75,29.57
1637789.712899,-0.558,-0.633,0.484,-69.95,15.23,13.25
1637789.753166,-0.502,-0.642,0.504,-75.47,32.72,0.27
1637789.793802,-0.515,-0.677,0.516,-58.11,54.08,-2.35
1637789.839222,-0.63,-0.78,0.415,-111.45,63.2,-32.69
1637789.879664,-0.704,-0.799,0.37,-123.97,42.24,-41.6
1637789.922946,-0.781,-0.819,0.222,-87.1,26.06,-16.14
1637789.962966,-0.77,-0.88,0.124,-33.6,23.29,-9.86
1637790.003285,-0.847,-0.794,0.013,33.08,13.15,-11.02
1637790.043813,-0.823,-0.768,-0.025,100.59,27.83,4.55
1637790.089288,-0.717,-0.649,-0.052,93.57,45.05,-8.0
1637790.142481,-0.584,-0.734,0.116,71.05,58.66,-19.62
1637790.182629,-0.563,-0.698,0.201,84.87,73.43,-19.75
1637790.229273,-0.539,-0.729,0.323,58.14,64.27,-15.53
1637790.282453,-0.513,-0.732,0.381,45.23,44.86,-12.54
1637790.323377,-0.521,-0.751,0.396,34.61,40.22,-21.67
1637790.369658,-0.586,-0.676,0.357,25.03,27.04,-29.45
1637790.409679,-0.622,-0.665,0.294,23.68,17.06,-27.16
1637790.452726,-0.664,-0.655,0.259,44.31,11.11,-27.07
1637790.492917,-0.767,-0.562,0.202,62.9,14.62,-9.64
1637790.532955,-0.929,-0.724,0.294,76.85,53.59,36.44
1637790.578652,-0.845,-0.763,0.254,39.12,8.09,-25.54
1637790.618944,-0.743,-0.694,0.168,31.62,8.94,-30.12
1637790.659400,-0.678,-0.628,0.206,36.68,40.89,-30.85
1637790.699503,-0.689,-0.607,0.239,29.18,36.81,-26.25
1637790.744008,-0.724,-0.647,0.225,34.76,33.51,-15.02
1637790.788512,-0.714,-0.684,0.232,49.96,50.26,-21.55
1637790.829185,-0.704,-0.592,0.259,60.55,61.31,-36.1
1637790.869699,-0.699,-0.548,0.322,75.78,79.56,-34.55
1637790.910039,-0.712,-0.562,0.394,83.47,90.95,-35.16
1637790.952999,-0.734,-0.603,0.419,92.41,85.76,-45.53
1637790.994382,-0.74,-0.576,0.411,101.5,90.76,-64.85
1637791.042577,-0.776,-0.562,0.451,108.62,107.0,-84.11
1637791.089777,-0.74,-0.536,0.473,123.91,109.9,-88.93
1637791.132876,-0.494,-0.695,0.607,127.75,122.17,-68.67
1637791.182583,-0.531,-0.802,0.655,88.44,90.0,-44.19
1637791.222953,-0.68,-0.954,0.654,134.8,68.79,-5.04
1637791.269421,-0.719,-0.793,0.502,78.13,28.9,-65.86
1637791.311504,-0.704,-0.645,0.452,21.03,25.09,-93.78
1637791.352841,-0.6,-0.577,0.474,29.3,26.52,-76.3
1637791.393488,-0.539,-0.532,0.399,37.87,8.12,-51.85
1637791.439362,-0.42,-0.602,0.357,22.55,14.07,-28.87
1637791.490050,-0.424,-0.637,0.384,27.71,35.25,-34.79
1637791.532945,-0.421,-0.529,0.451,23.74,50.45,-35.04
1637791.578789,-0.439,-0.574,0.568,7.05,53.32,-1.89
1637791.619819,-0.443,-0.66,0.565,15.56,39.19,11.72
1637791.669738,-0.481,-0.728,0.577,3.85,50.33,17.55
1637791.710291,-0.435,-0.694,0.583,-0.7,23.53,10.47
1637791.762410,-0.426,-0.616,0.639,8.91,43.31,18.49
1637791.808272,-0.521,-0.565,0.755,-13.43,36.65,30.43
1637791.848815,-0.527,-0.6,0.748,-13.86,3.63,40.25
1637791.889134,-0.563,-0.63,0.701,-23.59,-11.41,40.89
1637791.939480,-0.789,-0.699,0.744,-19.59,-10.65,37.05
1637791.979719,-0.905,-0.671,0.739,-2.78,-25.67,26.25
1637792.032818,-0.807,-0.609,0.573,-3.33,-64.42,18.07
1637792.072968,-0.656,-0.588,0.461,7.2,-77.03,13.28
1637792.118833,-0.554,-0.479,0.404,27.16,-70.62,12.27
1637792.159513,-0.574,-0.476,0.42,15.93,-50.48,26.0
1637792.209924,-0.727,-0.57,0.541,-8.85,7.45,27.74
1637792.262872,-0.751,-0.62,0.607,-18.98,1.19,-8.67
1637792.303104,-0.615,-0.573,0.496,-1.95,-18.34,-9.28
1637792.353468,-0.554,-0.549,0.491,-0.61,-1.1,2.41
1637792.403371,-0.632,-0.587,0.529,-26.86,10.16,1.53
1637792.443427,-0.63,-0.68,0.518,-52.46,4.27,-1.8
1637792.488606,-0.647,-0.639,0.514,-33.23,-12.36,-16.54
1637792.529193,-0.638,-0.513,0.443,-20.36,-29.85,-4.18
1637792.569283,-0.616,-0.586,0.409,-40.56,-26.12,12.24
1637792.619510,-0.584,-0.748,0.505,-60.61,7.6,-9.46
1637792.659702,-0.645,-0.7,0.563,-13.7,22.31,-30.4
1637792.699733,-0.632,-0.629,0.555,26.12,13.25,-22.86
1637792.742971,-0.565,-0.604,0.592,41.23,4.61,-15.38
1637792.800294,-0.535,-0.598,0.609,51.82,-12.39,-7.11
1637792.849150,-0.497,-0.589,0.506,14.8,-34.27,12.12
1637792.889395,-0.588,-0.705,0.474,-9.86,-21.91,29.88
1637792.929639,-0.677,-0.819,0.484,-19.53,-3.14,18.28
1637792.969653,-0.628,-0.742,0.49,-38.82,-6.84,-8.21
1637793.019081,-0.531,-0.697,0.482,-20.51,-7.35,1.04
1637793.062587,-0.567,-0.7,0.549,-13.95,0.7,1.53
1637793.108852,-0.591,-0.658,0.588,-14.44,-0.67,-6.04
1637793.159001,-0.538,-0.57,0.557,-11.78,-5.28,-8.76
1637793.209155,-0.516,-0.529,0.606,14.04,-1.8,12.94
1637793.259859,-0.539,-0.5,0.618,32.69,-3.27,29.76
1637793.313087,-0.579,-0.543,0.637,17.24,-12.05,33.81
1637793.359014,-0.58,-0.576,0.597,2.41,-21.67,33.42
1637793.409758,-0.548,-0.656,0.531,-22.1,-21.03,30.3
1637793.452825,-0.528,-0.666,0.504,-25.48,-15.96,20.51
1637793.498422,-0.538,-0.644,0.491,-32.26,-2.96,9.58
1637793.543806,-0.583,-0.618,0.504,-33.81,7.23,5.55
1637793.588970,-0.619,-0.623,0.543,-40.04,11.57,9.64
1637793.633287,-0.636,-0.605,0.524,-33.6,1.62,8.39
1637793.679038,-0.649,-0.64,0.484,-29.27,4.7,8.82
1637793.719869,-0.671,-0.65,0.466,-34.85,-1.83,-0.79
1637793.762938,-0.641,-0.704,0.419,-26.67,-0.03,3.3
1637793.813052,-0.629,-0.684,0.399,-6.59,7.02,-7.51
1637793.860114,-0.606,-0.669,0.395,8.21,10.01,-2.11
1637793.913255,-0.624,-0.702,0.391,19.84,13.98,-0.73
1637793.953286,-0.649,-0.73,0.379,24.6,14.74,-5.28
1637793.993810,-0.669,-0.724,0.392,29.82,22.37,-10.35
1637794.039467,-0.68,-0.732,0.415,15.02,33.88,-22.46
1637794.092743,-0.648,-0.687,0.472,15.5,33.23,-30.52
1637794.139211,-0.622,-0.647,0.494,13.89,35.55,-28.2
1637794.189565,-0.628,-0.714,0.545,-14.16,36.19,-46.11
1637794.232405,-0.627,-0.684,0.57,-36.01,30.37,-67.51
1637794.272858,-0.59,-0.647,0.601,-7.9,19.32,-38.45
1637794.312864,-0.553,-0.61,0.585,30.09,-11.08,-6.2
1637794.353246,-0.545,-0.576,0.551,41.96,-24.08,16.57
1637794.399270,-0.541,-0.611,0.531,31.77,-21.21,35.34
1637794.439753,-0.574,-0.705,0.508,15.08,-30.52,26.52
1637794.490044,-0.579,-0.717,0.456,-9.46,-33.51,2.14
1637794.543388,-0.582,-0.751,0.464,-7.02,-23.93,-2.08
1637794.593913,-0.569,-0.709,0.439,4.15,-32.9,-6.87
1637794.642949,-0.52,-0.66,0.421,1.86,-20.6,-4.0
1637794.693842,-0.527,-0.642,0.457,-4.33,-11.47,0.64
1637794.739176,-0.524,-0.648,0.463,0.89,-10.83,10.53
1637794.783054,-0.533,-0.674,0.474,7.08,-2.99,10.71
1637794.832888,-0.541,-0.738,0.452,-30.24,23.53,-16.75
1637794.879318,-0.479,-0.948,0.353,-64.3,95.4,-83.56
1637794.923059,-0.491,-1.201,0.271,-152.38,165.35,-191.08
1637794.973063,-0.431,-1.326,0.435,-220.74,158.42,-289.28
1637795.023127,-0.144,-1.018,0.313,-135.69,68.67,-216.5
1637795.069942,0.242,-1.105,0.157,-66.99,9.25,-167.15
1637795.113017,0.405,-1.074,0.13,-116.37,17.58,-224.01
1637795.162634,0.458,-1.056,-0.083,-106.2,8.64,-201.33
1637795.209729,0.618,-0.803,-0.216,-91.95,57.95,-202.49
1637795.252989,0.596,-0.492,-0.283,-134.56,92.41,-200.08
1637795.303533,0.526,-0.421,-0.151,-152.23,104.98,-120.73
1637795.352385,0.422,-0.216,-0.334,-182.35,0.15,-103.09
1637795.393995,0.415,-0.291,-0.779,-126.29,-68.91,-40.83
1637795.439371,0.565,-0.368,-0.757,-51.85,-40.47,4.85
1637795.489813,0.66,-0.19,-0.623,-25.79,-25.03,8.06
1637795.543582,0.665,-0.145,-0.434,-37.81,-3.27,-10.32
1637795.588835,0.712,-0.192,-0.58,-29.6,-45.78,13.98
1637795.629074,0.717,-0.139,-0.55,-65.95,-55.82,12.79
1637795.669537,0.704,-0.061,-0.602,-25.06,-66.19,30.67
1637795.710168,0.599,-0.071,-0.717,-34.64,-59.08,7.84
1637795.762727,0.432,-0.142,-0.677,33.08,-108.65,66.81
1637795.809330,0.636,-0.294,-1.418,-35.25,-14.28,-2.35
1637795.849456,0.315,-0.299,-0.933,-46.24,54.45,-25.82
1637795.889801,0.579,-0.478,-1.03,38.88,-7.23,35.31
1637795.929972,0.58,-0.275,-0.932,-1.31,82.77,-46.57
1637795.973013,0.662,-0.137,-0.712,9.43,110.42,-33.23
1637796.019456,0.724,-0.062,-0.506,-36.26,128.48,-58.17
1637796.060351,0.787,-0.019,-0.632,-69.52,151.55,-56.18
1637796.103307,0.822,0.03,-0.378,-47.33,131.9,-74.59
1637796.158145,0.837,-0.01,-0.5,-27.86,77.79,-36.5
1637796.202312,0.637,-0.018,-0.586,56.61,114.44,10.07
1637796.249166,0.489,0.076,-0.143,29.57,53.77,64.61
1637796.289603,0.988,-0.017,-0.04,27.65,-0.18,78.83
1637796.340137,1.27,-0.023,-0.252,-8.09,-20.08,62.26
1637796.396504,1.212,-0.357,-0.269,-9.67,-14.77,39.03
1637796.439247,1.013,-0.307,-0.522,-6.68,29.69,5.49
1637796.489490,0.892,-0.291,-0.308,26.7,-47.52,-21.79
1637796.540027,0.723,-0.251,-0.38,-2.08,37.23,-21.3
1637796.593105,0.813,-0.354,-0.144,22.52,-9.58,15.05
1637796.633283,0.869,-0.232,-0.296,30.55,-25.85,-11.57
1637796.678876,0.958,-0.191,-0.314,7.48,-2.62,-21.06
1637796.719790,1.0,-0.041,-0.331,-11.02,16.24,-16.48
1637796.769670,0.998,-0.071,-0.319,-46.6,21.27,29.45
1637796.810177,0.932,-0.139,-0.194,-11.69,-23.07,23.93
1637796.852995,0.952,-0.141,-0.354,-17.61,-58.14,25.24
1637796.898755,0.938,-0.244,-0.357,-9.8,-18.74,30.92
1637796.938953,0.882,-0.249,-0.374,-2.62,-29.24,23.22
1637796.979177,0.866,-0.269,-0.337,-7.87,-16.69,24.41
1637797.029453,0.836,-0.352,-0.396,-13.4,-33.08,12.82
1637797.070032,0.8,-0.341,-0.474,-12.27,-50.39,13.73
1637797.110082,0.861,-0.357,-0.687,-12.51,33.05,-17.4
1637797.153266,0.929,-0.382,-0.323,13.21,1.98,-31.31
1637797.198620,0.766,-0.353,-0.753,51.09,-43.34,-55.45
1637797.238991,0.79,-0.18,-0.235,-14.62,46.33,-38.42
1637797.289325,0.847,-0.202,-0.356,8.24,1.8,-7.35
1637797.339547,0.874,-0.202,-0.392,3.05,5.1,-12.12
1637797.389989,0.842,-0.081,-0.467,-32.38,17.0,-2.56
1637797.432692,0.834,-0.14,-0.284,-44.62,19.23,22.89
1637797.473059,0.846,-0.189,-0.362,-25.3,-34.58,16.97
1637797.519081,0.889,-0.182,-0.555,-19.04,-27.56,15.47
1637797.559562,0.866,-0.212,-0.474,-17.37,8.03,19.62
1637797.609427,0.865,-0.268,-0.5,-2.72,0.58,17.15
1637797.659583,0.828,-0.215,-0.377,-4.3,14.95,0.52
1637797.709827,0.873,-0.239,-0.454,8.39,14.16,11.54
1637797.759857,0.859,-0.281,-0.439,8.12,7.11,8.42
1637797.808886,0.843,-0.244,-0.386,6.23,0.98,6.71
1637797.859980,0.857,-0.306,-0.483,12.27,-26.34,-1.43
1637797.912689,1.027,-0.309,-0.472,-7.05,-28.41,-42.88
1637797.953085,0.717,-0.301,-0.423,14.37,-63.2,-21.94
1637797.998972,0.812,-0.179,-0.34,9.74,26.0,-11.84
1637798.038970,0.828,-0.229,-0.342,16.54,-26.76,5.77
1637798.089120,0.823,-0.2,-0.476,-1.8,-7.29,-1.8
1637798.138914,0.85,-0.252,-0.459,-1.65,12.79,-1.62
1637798.179016,0.855,-0.241,-0.445,-0.52,14.5,-8.15
1637798.223090,0.861,-0.211,-0.422,-7.87,5.25,-5.4
1637798.273294,0.774,-0.146,-0.485,-29.15,2.35,3.27
1637798.318681,0.839,-0.227,-0.37,-25.45,8.0,16.82
1637798.358899,0.86,-0.234,-0.426,-16.63,-14.5,7.84
1637798.410771,0.883,-0.223,-0.513,-9.43,-2.96,13.31
1637798.459461,0.857,-0.254,-0.509,1.16,11.44,19.53
1637798.512972,0.838,-0.268,-0.469,6.53,12.76,22.1
1637798.558745,0.822,-0.275,-0.417,14.56,7.75,9.43
1637798.608772,0.816,-0.274,-0.45,6.71,8.09,9.16
1637798.658740,0.816,-0.323,-0.407,17.73,-13.76,-4.76
1637798.699147,0.922,-0.294,-0.49,-10.8,-42.27,-43.79
1637798.749228,0.756,-0.161,-0.423,-11.05,-2.87,-28.53
1637798.789573,0.829,-0.17,-0.44,-14.86,67.66,-21.55
1637798.842796,0.824,-0.191,-0.365,-1.86,26.58,2.11
1637798.892845,0.82,-0.175,-0.385,8.64,-11.38,-2.87
1637798.942766,0.862,-0.192,-0.388,7.93,-6.41,-1.8
1637798.993062,0.862,-0.209,-0.431,1.34,-9.09,0.12
1637799.039812,0.891,-0.227,-0.429,0.21,1.68,-1.04
1637799.089607,0.865,-0.169,-0.425,-12.51,6.26,-2.53
1637799.143342,0.809,-0.136,-0.345,1.53,-11.6,17.46
1637799.188875,0.878,-0.202,-0.46,-13.52,-31.16,9.49
1637799.239181,0.906,-0.231,-0.52,-8.03,-14.4,10.65
1637799.289023,0.848,-0.225,-0.484,10.1,6.32,8.33
1637799.329330,0.841,-0.231,-0.432,10.47,13.89,13.09
1637799.369654,0.827,-0.252,-0.425,22.4,-3.2,14.86
1637799.409893,0.853,-0.264,-0.508,15.05,-5.28,5.52
1637799.459369,0.815,-0.236,-0.476,12.57,2.72,6.35
1637799.509445,0.803,-0.288,-0.488,5.89,-23.22,-5.49
1637799.562685,0.896,-0.269,-0.61,-12.76,-21.73,-42.24
1637799.612909,0.821,-0.295,-0.52,1.56,25.82,-34.46
1637799.653129,0.845,-0.18,-0.423,15.63,41.87,-13.76
1637799.698606,0.843,-0.18,-0.285,-1.95,27.8,-9.74
1637799.743378,0.821,-0.162,-0.33,2.23,-4.24,0.46
1637799.784927,0.867,-0.219,-0.409,-5.13,-11.9,-0.67
1637799.829389,0.894,-0.229,-0.474,-3.39,-3.02,-3.27
1637799.879154,0.899,-0.221,-0.424,-2.81,11.26,-6.26
1637799.929047,0.884,-0.218,-0.466,4.73,9.8,-2.96
1637799.979497,0.873,-0.186,-0.23,17.61,27.89,1.89
1637800.029605,0.88,-0.14,-0.425,-12.82,-16.3,-2.53
1637800.069664,0.899,-0.171,-0.373,-2.75,-13.58,11.72
1637800.109907,0.906,-0.235,-0.442,7.14,-29.6,33.78
1637800.163089,0.862,-0.27,-0.425,11.35,-1.62,24.81
1637800.209437,0.822,-0.266,-0.39,33.11,-8.0,25.12
1637800.259124,0.803,-0.32,-0.387,37.11,-3.69,16.08
1637800.299281,0.846,-0.255,-0.462,38.42,-18.19,26.46
1637800.339491,0.811,-0.308,-0.373,21.03,-5.04,8.61
1637800.390075,0.783,-0.337,-0.352,-20.48,-31.16,1.95
1637800.432844,0.785,-0.354,-0.528,-36.99,-28.47,-11.96
1637800.473009,0.958,-0.442,-0.527,-9.92,-27.31,-34.7
1637800.513128,0.639,-0.269,-0.389,-37.87,-23.93,-50.48
1637800.559346,0.794,-0.09,-0.406,-24.6,59.88,-44.8
1637800.609737,0.834,-0.172,-0.374,3.27,14.83,14.62
1637800.659891,0.846,-0.265,-0.412,-3.66,-17.4,-6.26
1637800.709832,0.867,-0.199,-0.453,-8.91,3.02,-6.2
1637800.759503,0.886,-0.241,-0.468,-12.45,6.16,4.0
1637800.809957,0.768,-0.129,-0.534,-14.92,36.65,5.58
1637800.849982,0.959,-0.198,-0.423,-24.08,6.07,23.38
1637800.892590,0.882,-0.252,-0.36,-18.28,-14.59,19.87
1637800.932904,0.899,-0.266,-0.533,-0.49,-15.02,16.3
1637800.983206,0.848,-0.246,-0.465,-5.01,1.71,14.07
1637801.028493,0.827,-0.236,-0.469,3.94,11.05,17.7
1637801.072797,0.809,-0.278,-0.449,8.58,1.74,17.37
1637801.113115,0.801,-0.286,-0.407,10.38,1.4,10.22
1637801.163179,0.816,-0.295,-0.431,5.19,5.22,-0.27
1637801.213105,0.79,-0.29,-0.342,21.88,-10.47,3.78
1637801.258894,0.788,-0.246,-0.458,1.59,-53.77,-5.62
1637801.309498,0.826,-0.27,-0.604,-60.18,-36.93,-26.28
1637801.349658,0.825,-0.259,-0.485,-17.46,-33.57,-10.04
1637801.389732,0.673,-0.297,-0.489,-17.67,-56.0,-6.78
1637801.440024,0.759,-0.25,-0.376,-3.75,20.39,7.14
1637801.482743,0.803,-0.316,-0.446,24.08,-40.13,14.07
1637801.533442,0.783,-0.228,-0.566,9.31,-1.68,-15.75
1637801.582871,0.826,-0.268,-0.572,5.31,8.42,2.32
1637801.633172,0.822,-0.269,-0.546,1.25,11.57,-4.3
1637801.678733,0.848,-0.25,-0.558,1.43,22.58,-2.29
1637801.723249,0.838,-0.255,-0.484,-11.63,21.42,-3.36
1637801.769032,0.792,-0.22,-0.449,-22.49,45.53,6.9
1637801.819024,0.838,-0.228,-0.455,-22.0,3.39,13.61
1637801.859608,0.842,-0.256,-0.516,-13.4,3.63,9.16
1637801.909489,0.824,-0.256,-0.473,-2.93,16.27,3.05
1637801.959384,0.84,-0.256,-0.527,5.34,19.56,8.97
1637802.009497,0.805,-0.265,-0.431,12.36,17.21,5.8
1637802.062775,0.816,-0.245,-0.433,11.84,14.04,4.55
1637802.102883,0.819,-0.239,-0.403,11.11,14.37,3.11
1637802.150035,0.814,-0.238,-0.38,8.79,-4.27,3.48
1637802.202830,0.84,-0.259,-0.489,23.5,-8.12,-12.82
1637802.243344,0.989,-0.271,-0.478,15.41,-36.56,-41.35
1637802.289272,0.715,-0.289,-0.607,24.78,-75.14,-10.93
1637802.329425,0.685,-0.109,-0.462,27.44,58.87,0.37
1637802.369481,0.697,-0.1,-0.373,62.69,-20.36,40.04
1637802.409782,0.794,-0.161,-0.513,56.25,-40.99,34.79
1637802.463000,0.717,-0.13,-0.503,51.15,-19.9,11.35
1637802.503376,0.809,-0.199,-0.498,70.53,-35.77,34.12
1637802.549278,0.797,-0.231,-0.485,38.64,-61.34,3.11
1637802.599681,0.684,-0.221,-0.516,66.16,-70.86,43.12
1637802.642744,0.702,-0.332,-0.452,70.62,-56.06,91.59
1637802.689685,0.608,-0.545,-0.403,66.19,-84.6,141.64
1637802.732611,0.58,-0.77,-0.412,115.76,-64.82,166.66
1637802.779524,0.527,-1.018,-0.371,82.89,-53.38,138.25
1637802.822662,0.525,-1.11,-0.424,34.03,-48.95,51.85
1637802.862867,0.531,-1.07,-0.284,-0.27,-20.78,5.65
1637802.908519,0.566,-1.066,-0.261,-15.47,-11.17,8.79
1637802.953203,0.541,-1.081,-0.352,-56.25,-0.18,-20.69
1637802.998748,0.405,-1.187,-0.402,-65.0,-3.66,-45.84
1637803.039088,0.36,-0.989,-0.409,-66.9,6.78,-78.74
1637803.089641,0.215,-0.703,-0.349,-42.79,-24.6,-62.62
1637803.129896,0.199,-0.657,-0.258,-17.24,-41.41,-2.96
1637803.173006,0.117,-0.642,-0.163,115.02,-73.55,67.81
1637803.220136,0.013,-0.748,-0.221,234.53,-91.04,174.02
1637803.269719,-0.097,-0.988,-0.433,234.32,-30.18,182.07
1637803.313052,-0.293,-1.063,-0.115,132.39,40.74,110.11
1637803.359846,-0.389,-1.104,0.071,130.44,-18.22,91.89
1637803.402820,-0.253,-1.118,-0.024,160.62,-68.12,89.79
1637803.449707,-0.227,-0.977,0.047,153.39,-32.2,81.39
1637803.490177,-0.141,-0.941,0.269,155.43,9.92,99.06
1637803.539791,-0.256,-0.974,0.485,121.49,15.02,121.13
1637803.583202,-0.378,-0.878,0.541,139.41,35.22,126.68
1637803.630063,-0.616,-0.459,0.448,89.6,50.17,43.92
1637803.672996,-0.828,-0.258,0.347,55.85,68.79,42.51
1637803.713232,-0.907,-0.41,0.381,-11.75,64.7,56.92
1637803.753481,-1.03,-0.516,0.391,4.67,52.55,61.98
1637803.799295,-0.91,-0.535,0.375,19.68,7.42,13.43
1637803.848881,-0.88,-0.407,0.451,8.79,-7.2,-3.66
1637803.889115,-0.794,-0.383,0.455,22.46,-12.15,18.22
1637803.929211,-0.782,-0.428,0.461,4.76,-10.47,11.17
1637803.979062,-0.773,-0.413,0.504,3.81,-4.97,-0.55
1637804.029158,-0.783,-0.391,0.484,11.44,-16.66,1.74
1637804.079157,-0.751,-0.359,0.417,4.09,-21.58,8.33
1637804.119267,-0.762,-0.411,0.387,-7.39,-21.09,14.01
1637804.169549,-0.721,-0.607,0.277,-15.53,-29.97,-8.94
1637804.212472,-0.769,-0.728,0.179,-42.85,-17.3,-43.98
1637804.252830,-0.722,-0.765,0.184,-62.44,-16.36,-101.38
1637804.299132,-0.638,-0.719,0.304,-23.26,26.31,-88.23
1637804.339833,-0.578,-0.869,0.408,-40.77,73.12,-88.44
1637804.383077,-0.606,-0.941,0.525,-91.62,114.78,-147.53
1637804.432720,-0.69,-0.941,0.637,-84.54,130.25,-166.36
1637804.479807,-0.574,-0.861,0.58,-64.15,86.15,-157.32
1637804.523156,-0.509,-0.795,0.487,-72.73,81.33,-133.52
1637804.569872,-0.324,-0.759,0.481,-65.65,75.56,-96.32
1637804.610050,-0.199,-0.772,0.441,-66.13,65.34,-90.43
1637804.653264,-0.08,-0.78,0.444,-67.32,36.13,-60.46
1637804.698699,-0.015,-0.902,0.304,-38.73,7.11,-15.99
1637804.739114,-0.044,-0.876,0.224,-23.53,0.4,-3.78
1637804.789294,-0.287,-1.109,-0.033,-17.03,-1.59,51.79
1637804.839426,-0.173,-1.282,-0.106,-0.61,-1.19,21.09
1637804.889609,0.01,-1.116,-0.232,-4.88,-18.04,-15.29
1637804.940154,0.097,-1.069,-0.272,1.16,-13.55,3.17
1637804.981130,0.099,-1.14,-0.301,8.09,-6.9,23.71
1637805.032414,0.104,-1.086,-0.352,-7.11,-10.77,-4.7
1637805.083002,0.07,-0.919,-0.317,-20.72,-1.04,-31.1
1637805.128755,0.07,-0.812,-0.239,-11.75,24.81,-0.76
1637805.179199,0.093,-0.864,-0.113,-8.03,39.16,32.01
1637805.219226,0.072,-0.927,-0.093,-2.69,30.92,33.54
1637805.259482,0.044,-0.928,-0.065,-14.65,19.75,17.21
1637805.299859,-0.043,-0.929,-0.045,-15.26,22.0,22.4
1637805.342783,-0.111,-0.947,-0.039,-11.26,36.81,36.04
1637805.383105,-0.171,-1.138,0.0,-25.61,31.04,26.37
1637805.428853,-0.152,-0.992,-0.03,2.01,-18.77,3.11
1637805.469040,-0.13,-0.938,-0.07,1.98,-22.92,8.21
1637805.513278,-0.132,-1.003,-0.092,-10.07,-34.64,11.66
1637805.553386,-0.214,-1.047,-0.112,4.21,-36.71,13.86
1637805.598956,-0.241,-1.079,-0.104,7.78,-37.93,17.33
1637805.639226,-0.247,-1.035,-0.141,-19.14,-44.07,-15.26
1637805.679523,-0.293,-0.962,-0.129,-36.38,-27.68,-42.94
1637805.719855,-0.36,-0.978,-0.147,-35.07,-17.33,-36.35
1637805.760263,-0.31,-1.034,-0.184,13.28,-41.93,-24.26
1637805.803034,-0.262,-1.03,-0.375,30.73,-43.58,-9.7
1637805.843393,-0.253,-1.117,-0.409,32.75,-9.4,3.14
1637805.893427,-0.187,-0.924,-0.278,42.97,-15.02,2.44
1637805.933524,-0.155,-0.819,-0.154,35.04,-19.99,17.18
1637805.980143,-0.156,-0.777,-0.037,10.74,-33.75,27.25
1637806.032992,-0.151,-0.837,-0.094,-55.79,-63.78,9.77
1637806.078593,-0.172,-0.891,-0.145,-76.85,-40.56,-10.07
1637806.118719,-0.19,-0.942,-0.191,-65.22,-10.01,-1.56
1637806.158994,-0.201,-1.007,-0.258,-53.41,0.61,1.95
1637806.203224,-0.207,-0.963,-0.261,-25.27,8.61,1.89
1637806.249556,-0.225,-0.962,-0.285,22.1,12.91,24.02
1637806.299671,-0.222,-0.983,-0.294,33.54,14.56,29.45
1637806.352831,-0.175,-0.995,-0.247,8.64,-3.2,15.26
1637806.402889,-0.121,-1.008,-0.286,-9.74,-20.48,1.1
1637806.448467,-0.149,-1.063,-0.364,-25.76,-15.02,-11.32
1637806.488773,-0.218,-1.12,-0.339,-31.59,5.07,-15.63
1637806.528833,-0.202,-0.992,-0.242,-12.82,4.27,-25.57
1637806.579134,-0.177,-0.836,-0.224,-3.54,3.63,-24.93
1637806.621067,-0.23,-0.892,-0.191,-3.85,20.97,-15.53
1637806.669522,-0.316,-0.923,-0.183,5.89,24.48,-5.58
1637806.719644,-0.295,-0.95,-0.167,10.01,14.25,-0.49
1637806.769878,-0.234,-0.828,-0.183,12.33,-6.26,-6.1
1637806.819496,-0.203,-0.821,-0.195,5.98,-7.45,8.15
1637806.870072,-0.21,-0.916,-0.218,-0.82,-11.11,19.84
1637806.923046,-0.229,-1.025,-0.247,1.83,-14.44,18.8
1637806.968971,-0.222,-1.06,-0.271,0.92,-16.02,6.2
1637807.013279,-0.202,-1.031,-0.284,0.58,-11.17,-3.78
1637807.059741,-0.202,-0.97,-0.274,4.88,-2.23,-7.23
1637807.109766,-0.211,-0.936,-0.234,4.03,8.03,-5.43
1637807.159357,-0.239,-0.907,-0.195,0.21,5.71,-1.83
1637807.209130,-0.26,-0.935,-0.2,-6.1,3.14,-0.73
1637807.259207,-0.258,-0.94,-0.203,-10.22,-1.95,-0.58
1637807.308868,-0.247,-0.959,-0.232,-8.21,-3.42,-2.96
1637807.353306,-0.235,-0.939,-0.266,-1.65,-3.69,-3.66
1637807.399869,-0.222,-0.912,-0.262,1.37,1.16,0.46
1637807.449593,-0.226,-0.928,-0.257,-1.77,3.11,2.78
1637807.499390,-0.217,-0.94,-0.268,-3.97,1.68,2.17
1637807.550863,-0.211,-0.939,-0.265,-5.68,3.08,1.56
1637807.598664,-0.214,-0.943,-0.26,-3.23,3.78,2.47
1637807.643336,-0.223,-0.953,-0.255,-2.62,6.26,2.35
1637807.690030,-0.229,-0.947,-0.238,-1.56,6.99,1.43
1637807.739563,-0.231,-0.95,-0.227,-0.73,3.85,1.19
1637807.789043,-0.233,-0.94,-0.239,0.7,1.43,0.64
1637807.838786,-0.235,-0.936,-0.237,0.95,1.83,1.62
1637807.888447,-0.239,-0.944,-0.235,0.31,0.09,1.86
1637807.932918,-0.233,-0.941,-0.239,0.73,-1.13,0.37
1637807.979954,-0.227,-0.934,-0.256,0.95,-2.11,-0.46
1637808.029474,-0.232,-0.94,-0.259,1.5,1.07,1.46
1637808.069705,-0.231,-0.953,-0.249,1.04,1.13,0.4
1637808.113407,-0.223,-0.951,-0.256,1.59,-0.7,-0.03
1637808.163084,-0.221,-0.966,-0.265,2.2,1.01,-1.59
1637808.213261,-0.154,-1.153,-0.184,-14.1,16.42,-14.19
1637808.259593,0.202,-1.819,-0.033,-86.12,84.05,-95.55
1637808.302520,0.427,-2.219,0.253,-82.95,107.61,-181.28
1637808.349548,0.268,-1.846,-0.058,-53.83,68.24,-358.96
1637808.393922,0.149,-0.748,-0.512,-31.1,231.3,-351.76
1637808.443637,0.269,-0.168,-0.184,-126.41,85.15,-251.14
1637808.490042,0.287,0.121,-0.404,-110.75,67.96,-168.25
1637808.533600,0.185,0.173,-0.41,-100.5,23.32,-111.64
1637808.579716,0.346,0.192,-0.624,-75.5,-50.11,-53.35
1637808.620027,0.454,0.046,-0.763,-84.02,-78.28,-35.13
1637808.662997,0.731,-0.062,-0.966,-67.29,-17.0,-33.94
1637808.703104,0.752,-0.162,-0.874,-44.25,23.8,-28.9
1637808.749052,0.8,-0.128,-0.657,5.34,91.43,-41.05
1637808.789630,0.768,-0.016,-0.541,27.86,103.37,-18.01
1637808.832782,0.698,0.033,-0.321,51.33,118.63,-14.95
1637808.873475,0.693,0.001,-0.285,43.09,92.72,10.28
1637808.919314,0.628,0.032,-0.044,25.27,62.44,13.06
1637808.969935,0.812,-0.032,0.031,5.04,3.08,50.17
1637809.011413,0.976,-0.076,-0.047,-10.01,-28.53,45.44
1637809.052921,1.274,-0.189,-0.293,-12.09,-53.47,51.82
1637809.093607,1.412,-0.246,-0.314,-19.26,-30.64,27.89
1637809.139136,1.178,-0.32,-0.346,-12.63,2.72,24.93
1637809.179329,0.973,-0.383,-0.438,-2.04,11.17,18.92
1637809.229373,0.942,-0.277,-0.36,4.09,17.09,6.96
1637809.279559,0.933,-0.285,-0.261,13.58,22.89,3.45
1637809.319670,0.765,-0.363,-0.32,23.32,22.71,21.88
1637809.360357,0.83,-0.338,-0.223,16.72,15.14,6.44
1637809.410136,0.869,-0.166,-0.187,12.85,-2.08,-8.3
1637809.462967,0.843,-0.207,-0.156,13.95,-70.93,2.81
1637809.513445,0.974,-0.289,-0.19,19.99,-53.93,-2.53
1637809.553464,0.967,-0.24,-0.284,6.16,-24.99,-6.47
1637809.603458,0.965,-0.273,-0.302,-4.15,0.34,-6.84
1637809.653061,0.952,-0.282,-0.285,-6.13,11.26,-2.41
1637809.703354,0.895,-0.284,-0.262,-20.42,13.46,-12.42
1637809.748818,0.829,-0.301,-0.085,-19.5,46.24,-3.78
1637809.789061,0.857,-0.19,-0.125,-5.62,-13.25,-4.55
1637809.833484,0.945,-0.209,-0.357,9.7,-11.72,9.86
1637809.883384,0.913,-0.221,-0.196,-8.88,-11.9,9.16
1637809.925449,0.935,-0.23,-0.316,6.13,-5.4,11.29
1637809.972620,0.92,-0.244,-0.222,-4.88,-8.39,12.05
1637810.012708,0.916,-0.261,-0.311,-10.8,-13.58,12.76
1637810.063175,0.911,-0.263,-0.318,-4.06,-7.39,17.73
1637810.113283,0.907,-0.311,-0.296,-4.27,-0.52,7.81
1637810.160499,0.904,-0.316,-0.316,1.31,1.71,9.19
1637810.210194,0.889,-0.354,-0.243,-1.86,-3.91,0.46
1637810.262861,0.941,-0.352,-0.438,19.81,18.71,-23.47
1637810.302913,0.999,-0.293,-0.185,-7.08,-6.04,-57.92
1637810.343316,0.752,-0.196,-0.353,-2.01,-55.21,3.48
1637810.388688,0.91,-0.23,-0.129,-30.46,33.6,-6.04
1637810.433254,0.87,-0.271,-0.267,-9.74,-6.96,3.27
1637810.483204,0.891,-0.23,-0.281,10.96,-9.89,3.45
1637810.523213,0.901,-0.268,-0.307,11.02,-20.84,4.27
1637810.570087,0.908,-0.276,-0.306,1.13,3.05,0.12
1637810.619967,0.916,-0.254,-0.265,1.25,0.34,-2.84
1637810.669599,0.904,-0.18,-0.337,-24.6,4.82,-6.81
1637810.709779,0.986,-0.234,-0.337,-22.1,30.3,10.32
1637810.762958,0.928,-0.222,-0.183,-16.79,-2.81,0.89
1637810.813101,0.975,-0.259,-0.354,7.72,-1.25,8.55
1637810.860792,0.911,-0.227,-0.269,1.1,1.19,12.82
1637810.912968,0.905,-0.269,-0.313,5.65,6.62,17.06
1637810.962849,0.883,-0.269,-0.259,5.55,9.46,5.83
1637811.012897,0.881,-0.264,-0.272,5.8,12.42,5.55
1637811.062860,0.87,-0.296,-0.242,9.46,3.17,7.81
1637811.109969,0.853,-0.279,-0.206,3.02,1.22,1.46
1637811.159715,0.869,-0.304,-0.183,20.36,-10.19,-2.59
1637811.212983,0.886,-0.289,-0.25,10.86,10.62,-28.6
1637811.259408,0.813,-0.214,-0.18,-10.86,-80.9,-23.74
1637811.309009,0.914,-0.184,-0.418,-6.99,29.05,-15.26
1637811.359560,0.897,-0.286,-0.306,-0.89,-28.08,9.7
1637811.409704,0.887,-0.213,-0.279,14.92,-18.37,-1.19
1637811.460992,0.908,-0.273,-0.342,8.03,-13.0,1.13
1637811.509881,0.906,-0.261,-0.333,5.89,-9.31,1.07
1637811.560341,0.919,-0.297,-0.354,4.21,-3.2,-1.5
1637811.609483,0.905,-0.238,-0.317,-0.34,2.11,-4.64
1637811.659839,0.905,-0.246,-0.31,-14.8,-1.53,-0.27
1637811.709736,0.844,-0.213,-0.297,-19.99,14.22,2.62
1637811.761069,0.895,-0.176,-0.317,-26.92,3.39,2.5
1637811.813117,0.923,-0.28,-0.398,-6.9,-13.61,13.37
1637811.860003,0.897,-0.264,-0.352,-7.42,4.27,6.78
1637811.910202,0.889,-0.261,-0.366,-3.48,5.1,10.16
1637811.963109,0.882,-0.296,-0.355,3.97,13.06,8.58
1637812.014178,0.87,-0.256,-0.342,9.7,20.45,10.9
1637812.058650,0.865,-0.314,-0.296,9.31,16.36,13.55
1637812.109076,0.868,-0.307,-0.31,6.96,8.94,3.6
1637812.158971,0.872,-0.293,-0.306,5.19,-0.09,3.02
1637812.203383,0.859,-0.313,-0.309,4.36,-11.84,5.01
1637812.253305,0.888,-0.375,-0.409,14.4,2.53,-13.7
1637812.299071,0.998,-0.344,-0.264,-4.0,-35.65,-50.75
1637812.339458,0.772,-0.341,-0.443,-22.25,-32.9,-33.81
1637812.379568,0.922,-0.194,-0.096,-31.46,44.34,-5.71
1637812.430034,0.875,-0.315,-0.336,9.89,-18.98,5.77
1637812.470114,0.899,-0.24,-0.357,16.3,-15.29,-7.72
1637812.519797,0.895,-0.208,-0.343,5.49,-1.01,1.46
1637812.569459,0.913,-0.278,-0.35,5.34,-4.64,6.2
1637812.619102,0.909,-0.247,-0.34,1.37,1.4,-4.73
1637812.668818,0.907,-0.22,-0.329,-2.14,-0.52,-2.38
1637812.713376,0.885,-0.222,-0.33,-13.92,3.6,0.64
1637812.763097,0.88,-0.216,-0.315,-16.75,5.74,8.03
1637812.808626,0.924,-0.24,-0.312,-7.48,-8.09,13.49
1637812.858962,0.887,-0.277,-0.387,-4.09,-15.32,13.28
1637812.909196,0.889,-0.272,-0.382,-3.63,3.66,12.48
1637812.959428,0.873,-0.291,-0.354,4.46,5.68,13.64
1637813.009949,0.863,-0.281,-0.326,3.14,11.02,3.39
1637813.059545,0.876,-0.285,-0.356,6.99,8.15,5.62
1637813.108648,0.867,-0.291,-0.3,5.43,6.56,2.41
1637813.153358,0.887,-0.297,-0.354,6.84,5.16,4.46
1637813.202873,0.865,-0.295,-0.287,-7.48,-0.64,0.18
1637813.249768,0.875,-0.313,-0.309,-0.15,1.13,-1.83
1637813.299645,0.877,-0.349,-0.429,-0.46,0.82,-13.67
1637813.349775,0.909,-0.276,-0.012,-6.99,-33.88,-42.91
1637813.390224,0.717,-0.191,-0.473,17.58,-104.4,0.21
1637813.432990,0.881,-0.217,-0.402,0.92,24.11,-12.76
1637813.483374,0.863,-0.285,-0.532,25.36,-32.69,9.67
1637813.528837,0.832,-0.218,-0.31,16.51,-21.24,-6.99
1637813.579097,0.872,-0.249,-0.459,2.62,-6.44,-4.61
1637813.628845,0.892,-0.272,-0.449,1.34,9.34,-3.05
1637813.673431,0.906,-0.283,-0.44,2.9,9.25,-6.26
1637813.723618,0.892,-0.247,-0.429,1.8,20.45,-9.06
1637813.768526,0.894,-0.235,-0.41,-8.36,17.7,-4.85
1637813.813217,0.896,-0.206,-0.432,-5.49,13.37,-4.3
1637813.853420,0.873,-0.201,-0.317,-28.47,32.2,-3.08
1637813.899017,0.815,-0.196,-0.325,-12.12,8.76,14.86
1637813.939232,0.875,-0.219,-0.371,-7.26,7.9,18.22
1637813.983305,0.907,-0.242,-0.442,-5.8,5.65,17.24
1637814.023439,0.882,-0.266,-0.364,-7.2,16.66,14.53
1637814.063508,0.853,-0.277,-0.317,-2.08,15.78,14.16
1637814.108856,0.874,-0.265,-0.378,5.86,8.48,7.48
1637814.153221,0.857,-0.293,-0.307,3.48,8.0,1.65
1637814.199866,0.88,-0.27,-0.34,-1.25,1.86,-1.98
1637814.249429,0.878,-0.29,-0.35,-0.79,2.84,5.22
1637814.299161,0.855,-0.252,-0.393,-3.17,3.91,3.63
1637814.339482,0.821,-0.26,-0.449,10.32,7.6,12.3
1637814.389379,0.691,-0.34,-0.53,23.87,-7.32,22.68
1637814.429481,0.633,-0.276,-0.659,27.99,13.34,18.49
1637814.469738,0.518,-0.377,-0.368,59.05,-46.42,43.09
1637814.509851,0.596,-0.309,-0.592,108.65,-79.07,44.34
1637814.552729,0.669,-0.207,-0.601,41.57,-32.56,8.36
1637814.592752,0.707,-0.363,-0.264,57.83,-14.31,43.09
1637814.633151,0.828,-0.507,-0.364,73.82,-38.06,74.13
1637814.679353,0.905,-0.448,-0.306,4.97,-43.0,21.67
1637814.719632,0.908,-0.641,-0.244,9.52,-41.38,64.67
1637814.760213,1.037,-0.641,-0.351,4.85,-36.53,47.27
1637814.813498,0.922,-0.707,-0.193,-31.62,-14.07,21.85
1637814.859499,0.981,-0.554,-0.443,-58.66,-16.08,-20.36
1637814.910372,0.793,-0.611,-0.209,-48.77,33.66,12.91
1637814.953083,0.766,-0.682,-0.133,-12.6,34.3,48.89
1637814.999124,0.812,-0.699,-0.022,-50.6,12.24,-5.1
1637815.039529,0.81,-0.777,-0.082,-16.36,1.25,-4.7
1637815.088963,0.876,-0.889,-0.183,-2.96,5.8,-12.51
1637815.129238,0.939,-0.818,-0.25,-30.12,27.04,-66.62
1637815.169808,1.012,-0.779,-0.274,-14.53,83.19,-102.24
1637815.209932,0.97,-0.428,-0.04,33.2,53.59,-57.86
1637815.250013,0.984,-0.329,-0.203,-5.8,25.57,-66.01
1637815.292861,0.828,-0.214,-0.2,-28.93,11.17,-81.09
1637815.333428,0.681,-0.169,-0.247,-17.58,-35.52,-46.75
1637815.379551,0.653,-0.177,-0.475,-11.23,-69.58,-53.71
1637815.419642,0.357,0.055,-0.572,-19.1,-80.87,-6.71
1637815.461146,0.286,-0.144,-0.897,-46.91,23.8,-31.04
1637815.513096,0.686,-0.454,-0.967,2.44,-114.66,37.02
1637815.553144,0.812,-0.509,-0.839,-1.04,11.69,-17.15
1637815.603609,0.888,-0.19,-0.854,-16.05,92.2,-41.29
1637815.649716,0.8,-0.285,-0.165,-2.11,70.13,10.71
1637815.690133,0.93,-0.084,-0.022,-2.38,-21.18,15.96
1637815.730150,0.908,-0.289,-0.379,-52.61,24.14,-0.15
1637815.783147,0.859,-0.043,-0.328,-6.5,-1.74,16.57
1637815.823303,0.886,-0.171,-0.614,2.17,-18.37,36.99
1637815.869064,0.908,-0.435,-0.51,16.33,-34.67,-23.04
1637815.909335,0.743,-0.177,-0.829,40.47,75.01,-58.69
1637815.949550,0.759,-0.01,-0.039,31.59,10.16,-33.48
1637815.999782,0.91,-0.046,-0.445,17.21,1.37,-0.43
1637816.050094,1.006,-0.114,-0.507,-35.68,71.5,-4.12
1637816.093422,1.038,-0.199,-0.007,-33.14,63.45,26.52
1637816.133625,0.968,-0.136,-0.067,-24.93,-56.95,31.8
1637816.179578,0.927,-0.193,-0.353,-13.76,-7.02,34.58
1637816.229883,0.872,-0.197,-0.31,-4.91,-16.48,32.41
1637816.269896,0.853,-0.225,-0.448,-15.87,-20.66,9.8
1637816.310341,0.929,-0.215,-0.413,1.13,-16.63,-9.52
1637816.361178,0.538,-0.104,-0.177,16.72,-91.04,-6.41
1637816.403284,0.838,-0.189,-0.371,14.1,63.69,-8.06
1637816.453664,0.841,-0.225,-0.518,9.4,-48.62,20.51
1637816.498974,0.942,-0.342,-0.51,-1.74,12.27,2.38
1637816.539315,0.877,-0.313,-0.424,-18.4,12.73,-12.09
1637816.589743,0.685,-0.095,-0.545,-44.56,55.88,-4.91
1637816.640032,0.843,-0.264,-0.251,-4.06,-1.19,8.55
1637816.693153,0.834,-0.262,-0.581,2.96,-13.58,12.39
1637816.733320,0.804,-0.284,-0.45,17.79,-15.69,19.38
1637816.779291,0.887,-0.24,-0.434,22.0,4.52,21.67
1637816.819846,0.908,-0.285,-0.54,10.99,6.04,13.58
1637816.869500,0.64,-0.157,0.028,7.57,-63.39,-21.09
1637816.909585,0.685,-0.176,-0.401,9.98,79.99,-29.42
1637816.950251,0.635,-0.129,-0.273,30.49,-22.55,17.43
1637817.003508,0.776,-0.185,-0.293,1.43,-17.7,-11.41
1637817.049194,1.158,-0.133,-0.708,-40.83,-11.81,-18.86
1637817.089536,1.195,-0.116,-0.247,-42.57,29.42,4.91
1637817.129628,1.265,-0.272,-0.427,-15.44,-33.63,33.27
1637817.179709,1.039,-0.38,-0.534,0.34,27.86,3.57
1637817.220292,0.875,-0.24,-0.39,3.81,21.61,20.57
1637817.260298,0.748,-0.251,-0.345,-27.56,-8.39,18.62
1637817.313304,0.769,-0.294,-0.536,-8.06,-26.18,-15.05
1637817.353361,0.349,-0.275,0.178,-31.04,-92.68,-37.39
1637817.399500,0.728,-0.163,-0.305,-14.47,36.04,-51.67
1637817.439661,0.869,-0.184,-0.595,-17.43,-84.51,1.46
1637817.490272,0.843,-0.149,-0.848,-57.13,55.21,3.48
1637817.533279,0.768,-0.295,-0.286,-7.93,53.87,37.45
1637817.578982,0.826,-0.177,-0.571,-2.66,-8.97,22.61
1637817.623408,0.79,-0.24,-0.482,7.6,-9.8,26.95
1637817.668857,0.755,-0.211,-0.516,-2.84,-52.16,20.48
1637817.713618,0.953,-0.268,-0.82,22.92,-20.42,-16.57
1637817.765192,0.673,-0.375,-0.83,13.03,-134.98,-44.89
1637817.812992,0.762,-0.122,-0.358,-0.89,64.67,-2.23
1637817.858519,0.689,-0.199,-0.628,-29.57,4.46,-8.91
1637817.909250,0.749,-0.049,-0.282,-29.15,44.28,26.4
1637817.949361,0.905,-0.244,-0.609,-5.55,-45.81,35.46
1637817.989542,0.86,-0.225,-0.68,-24.78,2.69,5.28
1637818.040190,0.797,-0.242,-0.535,5.1,-19.84,11.75
1637818.093352,0.995,-0.286,-0.689,33.66,-2.11,-26.86
1637818.133508,0.507,-0.353,-0.563,43.49,-64.24,-44.22
1637818.179305,0.634,-0.116,-0.282,34.42,5.62,-61.46
1637818.219810,0.716,-0.025,-0.62,7.05,-56.31,-3.6
1637818.272991,0.788,-0.096,-0.553,-46.6,-1.5,19.5
1637818.318618,0.884,-0.066,-0.589,-34.39,-15.23,27.04
1637818.360849,0.92,-0.262,-0.654,-13.86,-5.31,17.67
1637818.409883,0.959,-0.2,-0.71,24.6,20.17,-21.12
1637818.463052,0.37,-0.207,-0.407,21.18,-163.46,-31.43
1637818.503325,0.625,-0.051,-0.424,-3.3,85.27,-5.52
1637818.549036,0.814,-0.341,-0.695,0.03,-0.49,-1.68
1637818.589347,0.739,-0.128,-0.679,-30.24,36.53,-10.83
1637818.629349,0.716,-0.262,-0.417,-36.77,44.95,22.52
1637818.669994,0.714,-0.124,-0.561,-32.9,-17.55,8.12
1637818.710259,0.773,-0.072,-0.664,-33.14,-35.98,25.88
1637818.753172,0.838,-0.269,-0.631,10.99,-23.68,16.27
1637818.803173,0.824,-0.151,-0.347,3.78,-49.04,-32.32
1637818.849288,0.782,0.11,-1.056,28.6,81.45,3.6
1637818.891895,0.789,-0.342,-0.353,24.57,16.63,13.82
1637818.942765,0.63,-0.043,-0.775,-33.48,58.9,-12.91
1637818.982996,0.732,-0.291,-0.308,-12.94,64.24,17.76
1637819.033800,0.839,-0.135,-0.66,-14.01,-0.4,-2.9
1637819.079185,0.703,-0.152,-0.499,-27.86,-12.09,6.74
1637819.123810,0.963,-0.236,-0.928,30.98,-1.01,-3.45
1637819.170350,0.52,-0.353,-0.904,119.54,-132.3,-82.03
1637819.223627,0.674,-0.129,-0.272,86.83,-11.44,50.78
1637819.269199,0.791,-0.254,-0.655,-1.07,1.43,-20.69
1637819.309538,0.833,-0.151,-0.608,-24.17,32.84,-7.35
1637819.360740,0.801,-0.223,-0.536,-49.59,62.17,14.8
1637819.413369,0.846,-0.149,-0.481,-21.24,-21.91,15.84
1637819.453610,0.822,-0.205,-0.605,-47.49,0.09,25.57
1637819.499210,0.748,-0.225,-0.662,12.02,-33.51,17.49
1637819.539574,1.027,-0.277,-0.568,34.55,-19.81,-31.19
1637819.580005,0.526,-0.336,-0.681,46.97,-165.07,-83.62
1637819.620271,0.665,-0.112,0.178,-5.92,96.13,-4.94
1637819.663219,0.871,-0.308,-0.693,16.82,-49.96,41.75
1637819.709523,0.821,-0.109,-0.702,-38.91,20.54,-22.1
1637819.749527,0.712,-0.145,-0.452,-43.76,90.85,26.03
1637819.789653,0.852,-0.184,-0.497,-26.67,11.08,22.16
1637819.829948,0.964,-0.204,-0.791,-18.98,43.58,15.47
1637819.870117,0.752,-0.225,-0.4,17.43,3.02,23.56
1637819.910381,0.767,-0.249,-0.79,30.76,-13.06,-15.78
1637819.953141,0.615,-0.202,-0.332,7.84,-100.16,-14.13
1637819.999327,0.598,-0.087,-0.153,-38.48,144.9,-19.26
1637820.039861,0.799,-0.337,-0.594,37.02,-112.31,67.14
1637820.080109,0.792,-0.256,-0.642,-4.88,-7.35,-21.97
1637820.123785,0.823,-0.187,-0.69,-29.82,56.22,-30.49
1637820.166821,0.695,-0.173,-0.416,-9.67,82.92,14.71
1637820.208855,0.966,-0.201,-0.461,-6.23,6.07,31.71
1637820.248939,0.854,-0.267,-0.534,-29.18,25.09,38.12
1637820.289044,0.747,-0.21,-0.482,6.62,-23.74,26.06
1637820.339895,0.682,-0.248,-0.689,7.29,-25.06,-10.71
1637820.380182,0.561,-0.194,-0.371,-19.68,-123.66,-5.83
1637820.423492,0.556,0.143,-1.552,57.37,74.04,-20.11
1637820.469501,0.655,-0.247,-0.449,36.13,-104.07,79.74
1637820.509919,0.644,-0.273,-0.764,18.43,-36.77,4.09
1637820.562930,0.537,-0.249,-0.627,11.47,-11.17,-13.95
1637820.608812,0.483,-0.233,-0.716,21.27,-43.37,5.28
1637820.649195,0.401,-0.286,-0.727,31.07,-54.57,25.79
1637820.689715,0.496,-0.496,-0.78,78.65,-56.92,41.9
1637820.730539,0.533,-0.32,-0.849,62.29,-56.7,-29.02
1637820.783026,0.522,-0.333,-0.805,33.63,-43.76,19.75
1637820.823630,0.592,-0.577,-0.768,67.48,-50.9,30.76
1637820.869464,0.656,-0.519,-0.737,37.08,-56.28,-10.16
1637820.909911,0.571,-0.343,-0.802,22.95,-60.37,-13.46
1637820.949947,0.621,-0.516,-0.731,34.55,-0.09,33.51
1637820.989972,0.561,-0.627,-0.631,8.33,-0.03,19.5
1637821.034304,0.646,-0.572,-0.646,-1.34,-24.72,-12.48
1637821.079727,1.04,-0.755,-1.208,-39.12,107.12,1.62
1637821.123680,1.034,-0.767,-0.703,-129.58,209.36,-81.42
1637821.172743,0.97,-0.507,-0.644,-71.72,139.38,9.86
1637821.212882,0.828,-0.614,-0.681,-25.61,67.96,-2.72
1637821.253000,0.671,-0.464,-0.591,-4.52,95.8,-44.95
1637821.293403,0.536,-0.313,-0.467,16.3,79.01,-68.03
1637821.339381,0.707,-0.061,-0.216,43.31,100.96,-86.52
1637821.380065,0.447,-0.282,-0.651,74.77,-144.87,-6.9
1637821.423313,0.297,-0.21,-0.694,42.21,161.99,25.09
1637821.469902,0.45,-0.296,-0.334,66.19,-112.98,69.92
1637821.509997,0.691,-0.479,-0.544,7.08,0.98,-11.29
1637821.560505,0.585,-0.362,-0.397,12.3,9.49,-16.72
1637821.613629,0.534,-0.439,-0.361,44.01,-59.42,26.37
1637821.660733,0.545,-0.396,-0.473,62.78,-104.4,-6.5
1637821.703199,0.534,-0.319,-0.442,50.14,-154.64,-19.93
1637821.749697,0.468,-0.145,-0.693,17.33,-220.28,-21.94
1637821.791325,0.51,-0.315,-0.89,40.38,-184.27,16.24
1637821.833235,0.48,-0.323,-0.949,25.45,-145.97,29.88
1637821.880328,0.428,-0.346,-1.047,11.9,-101.35,31.37
1637821.921060,0.405,-0.433,-1.071,0.0,-48.49,66.44
1637821.963069,0.367,-0.49,-1.0,22.55,23.59,85.7
1637822.003988,0.392,-0.555,-0.933,27.44,40.22,101.5
1637822.049713,0.399,-0.652,-0.911,12.3,68.36,88.47
1637822.089717,0.349,-0.704,-0.842,12.09,97.14,87.8
1637822.132874,0.322,-0.764,-0.777,27.56,109.2,98.06
1637822.179636,0.286,-0.775,-0.665,24.45,116.09,89.36
1637822.222794,0.263,-0.767,-0.558,19.53,121.59,80.97
1637822.280347,0.229,-0.787,-0.457,13.98,117.19,70.07
1637822.329071,0.214,-0.853,-0.386,18.46,84.48,71.75
1637822.369646,0.233,-0.913,-0.387,5.4,48.52,49.93
1637822.409855,0.222,-0.897,-0.386,6.84,29.97,20.08
1637822.460159,0.257,-0.849,-0.412,-1.86,8.91,-0.67
1637822.509974,0.282,-0.799,-0.431,-13.31,-0.89,-10.96
1637822.562833,0.304,-0.792,-0.466,-15.11,-1.5,-15.02
1637822.608417,0.307,-0.8,-0.49,-9.34,0.31,-7.81
1637822.649696,0.318,-0.813,-0.491,-3.51,2.72,-1.25
1637822.699581,0.329,-0.818,-0.492,-0.24,3.08,-3.23
1637822.749508,0.341,-0.812,-0.499,-0.79,-0.06,-7.26
1637822.799074,0.348,-0.805,-0.505,4.94,0.55,-9.64
1637822.839551,0.346,-0.784,-0.509,-0.98,-3.08,-11.96
1637822.883426,0.348,-0.758,-0.52,-7.08,-5.8,-17.4
1637822.923451,0.359,-0.783,-0.562,-8.97,0.24,-24.02
1637822.973501,0.351,-0.747,-0.529,-7.08,1.53,-19.14
1637823.023194,0.358,-0.727,-0.53,5.28,-0.95,-7.14
1637823.070069,0.361,-0.722,-0.547,4.64,3.63,-7.42
1637823.114534,0.361,-0.718,-0.533,4.24,3.63,-5.25
1637823.158901,0.363,-0.735,-0.533,3.42,1.71,-3.17
1637823.203622,0.375,-0.741,-0.532,2.04,-1.43,-3.45
1637823.253187,0.384,-0.723,-0.529,1.4,-1.16,-1.83
1637823.300027,0.384,-0.727,-0.531,1.01,0.95,0.85
1637823.349473,0.389,-0.732,-0.521,2.75,3.36,4.43
1637823.399282,0.386,-0.742,-0.519,3.36,3.88,6.93
1637823.439354,0.384,-0.761,-0.516,1.28,2.17,4.06
1637823.480221,0.386,-0.762,-0.511,-0.64,2.08,2.32
1637823.529958,0.386,-0.749,-0.511,-1.95,2.01,1.01
1637823.579624,0.384,-0.746,-0.514,-0.34,4.64,2.29
1637823.629292,0.384,-0.759,-0.521,-0.67,3.78,2.66
1637823.678989,0.376,-0.753,-0.496,-1.65,4.3,2.75
1637823.724361,0.382,-0.766,-0.506,-2.62,1.86,1.62
1637823.770567,0.386,-0.761,-0.522,-3.08,2.9,0.89
1637823.819706,0.388,-0.749,-0.517,-1.98,5.58,0.98
1637823.869709,0.39,-0.747,-0.511,-3.88,3.33,0.18
1637823.919339,0.388,-0.739,-0.514,-4.52,3.14,-0.64
1637823.969070,0.383,-0.737,-0.506,-4.7,2.78,1.16
1637824.013247,0.38,-0.74,-0.491,-4.06,2.14,3.11
1637824.059839,0.379,-0.765,-0.506,-2.53,0.95,2.5
1637824.109512,0.381,-0.774,-0.511,-0.95,-0.31,2.01
1637824.159271,0.392,-0.771,-0.523,0.85,-0.37,0.52
1637824.209014,0.392,-0.744,-0.515,2.14,-0.55,0.31
1637824.258677,0.386,-0.745,-0.516,1.95,-1.1,-0.58
1637824.303183,0.369,-0.743,-0.464,4.46,-1.62,1.19
1637824.353601,0.368,-0.869,-0.355,14.65,-10.07,19.47
1637824.399129,0.436,-1.118,-0.308,-2.2,-21.15,-5.31
1637824.439570,0.485,-1.169,-0.284,-3.39,-52.74,-44.34
1637824.490494,0.626,-1.076,-0.525,10.1,-65.13,-123.81
1637824.543432,0.696,-0.888,-0.524,16.08,26.49,-133.61
1637824.590379,0.844,-0.616,-0.6,-42.45,128.3,-176.67
1637824.640113,0.811,-0.291,-0.363,-43.0,115.36,-131.11
1637824.683016,0.872,-0.295,-0.385,-14.1,79.01,-64.97
1637824.723711,0.798,-0.234,-0.413,-64.94,68.64,-85.6
1637824.769712,0.631,-0.148,-0.412,-61.74,90.95,-74.98
1637824.810989,0.57,-0.088,-0.416,-55.97,49.26,-52.71
1637824.863470,0.481,-0.103,-0.344,-42.15,4.15,-2.69
1637824.903763,0.578,-0.172,-0.494,-29.08,-20.11,32.69
1637824.949613,0.682,-0.316,-0.556,-35.74,-30.67,5.16
1637824.989931,0.785,-0.246,-0.558,-29.11,-16.21,-26.86
1637825.030439,0.784,-0.162,-0.433,-22.46,-15.87,-32.96
1637825.073245,0.829,-0.081,-0.461,-8.7,-10.8,-16.21
1637825.113367,0.793,-0.08,-0.411,-14.28,-28.2,1.31
1637825.159038,0.844,-0.121,-0.396,-21.91,-33.39,5.55
1637825.199442,0.776,-0.097,-0.424,-24.96,-53.16,1.25
1637825.239564,0.854,-0.076,-0.636,-28.02,-60.64,15.93
1637825.279777,0.84,-0.064,-0.569,-35.92,-57.5,11.63
1637825.320156,0.865,-0.112,-0.672,-29.18,-38.88,9.16
1637825.360708,0.861,-0.119,-0.693,-20.72,-4.0,5.22
1637825.410083,0.744,-0.13,-0.545,-7.75,-10.62,9.25
1637825.460316,0.695,-0.123,-0.521,-9.34,-32.41,1.1
1637825.513253,0.426,-0.217,-0.107,5.55,-171.03,12.7
1637825.560598,-0.335,0.134,-0.948,-32.01,-586.78,47.76
1637825.613724,-0.84,-0.022,-1.068,-64.73,-654.65,20.2
1637825.660808,-0.78,-0.026,-1.545,69.46,-550.16,62.35
1637825.703671,-0.445,-0.279,-1.413,18.28,-292.09,24.87
1637825.749242,-0.852,-0.066,-0.845,-37.14,-0.09,-5.65
1637825.801057,-0.844,-0.078,-0.554,-26.06,-6.65,22.46
1637825.849894,-0.786,-0.061,-0.7,6.13,5.46,1.25
1637825.890334,-0.848,-0.023,-0.576,7.93,12.76,5.34
1637825.939855,-0.752,-0.058,-0.625,1.19,22.49,-1.22
1637825.989902,-0.738,-0.062,-0.647,4.7,43.09,-3.91
1637826.043174,-0.567,-0.065,-1.032,-23.22,149.48,12.48
1637826.083806,-0.469,-0.152,-1.105,-19.17,305.09,-12.7
1637826.130114,-0.461,0.049,-1.392,16.66,474.5,-33.51
1637826.173384,-0.49,-0.089,-1.213,-26.37,526.57,-45.59
1637826.220072,0.105,0.056,-0.997,47.33,419.23,-34.55
1637826.262877,0.407,-0.116,-0.512,34.76,317.15,-47.43
1637826.309806,0.666,-0.015,-0.31,12.76,135.87,-34.79
1637826.349925,0.749,0.075,-0.448,18.92,64.18,0.09
1637826.390277,0.746,0.008,-0.371,21.64,34.21,24.45
1637826.433205,0.824,-0.071,-0.45,26.61,17.58,34.85
1637826.473660,0.802,-0.113,-0.388,24.32,12.24,30.73
1637826.519632,0.846,-0.151,-0.505,26.7,-13.06,31.37
1637826.570060,0.821,-0.171,-0.445,19.96,-2.56,6.01
1637826.620364,0.86,-0.14,-0.531,7.69,-20.45,6.65
1637826.660385,0.839,-0.143,-0.467,0.85,-9.61,4.91
1637826.710188,0.871,-0.145,-0.509,1.8,-9.92,13.31
1637826.760623,0.845,-0.168,-0.493,-8.09,-1.83,-0.7
1637826.809806,0.862,-0.151,-0.538,-4.73,-7.97,6.96
1637826.859216,0.819,-0.192,-0.507,-2.99,3.05,7.54
1637826.909201,0.825,-0.2,-0.543,-0.76,-5.16,7.66
1637826.953204,0.806,-0.2,-0.518,-3.23,-2.32,1.07
1637826.999856,0.798,-0.19,-0.503,-0.09,-6.53,3.66
1637827.049855,0.8,-0.177,-0.499,-1.46,2.72,-4.64
1637827.099405,0.82,-0.193,-0.526,1.37,-2.75,3.14
1637827.148951,0.796,-0.205,-0.493,-0.7,5.89,-2.59
1637827.193488,0.802,-0.194,-0.506,0.18,2.5,-1.59
1637827.243769,0.741,-0.182,-0.405,0.61,-12.51,3.14
1637827.293397,0.53,-0.206,-0.101,6.71,-110.17,18.31
1637827.341805,0.084,-0.162,-0.277,13.92,-409.86,43.92
1637827.382932,-0.591,-0.074,-0.894,-31.1,-605.91,41.57
1637827.429873,-0.723,0.057,-1.201,-87.71,-589.1,26.8
1637827.472850,-0.457,-0.076,-1.327,-24.84,-445.69,69.52
1637827.513574,-0.362,-0.16,-1.221,-1.01,-198.58,73.92
1637827.560534,-0.829,-0.139,-0.814,-25.85,-35.0,31.68
1637827.613367,-0.919,-0.128,-0.805,-4.73,-73.55,15.32
1637827.663560,-0.851,-0.103,-1.045,5.68,-39.46,5.52
1637827.713478,-0.882,-0.102,-0.97,-16.45,73.7,-2.44
1637827.765351,-0.716,-0.053,-1.03,-20.26,150.88,-7.17
1637827.812825,-0.465,-0.058,-1.33,-1.07,320.51,-12.67
1637827.853761,-0.514,0.001,-1.39,5.95,451.86,-23.9
1637827.916674,-0.386,-0.02,-0.939,7.66,422.44,-27.34
1637827.959174,0.269,-0.002,-1.194,33.45,385.97,-0.73
1637827.999754,0.26,-0.115,-0.58,36.93,390.03,-37.35
1637828.043010,0.535,-0.083,-0.337,36.38,269.78,-37.6
1637828.089717,0.649,0.023,-0.245,10.47,89.39,-10.28
1637828.139843,0.692,0.013,-0.249,7.42,51.12,10.9
1637828.179899,0.709,-0.022,-0.242,9.95,-1.28,27.38
1637828.233031,0.781,-0.055,-0.343,4.03,-15.32,26.76
1637828.273190,0.687,-0.123,-0.269,-2.41,-41.54,24.48
1637828.318775,0.68,-0.084,-0.314,0.34,-140.54,29.91
1637828.362257,0.566,-0.155,-0.325,-49.81,-180.73,8.61
1637828.413147,0.053,0.071,-0.742,2.69,-436.66,53.19
1637828.461045,-0.527,-0.144,-0.855,-15.17,-572.47,65.83
1637828.503234,-0.649,0.126,-1.329,-65.55,-550.37,45.11
1637828.549420,-0.421,-0.117,-1.497,-38.0,-378.19,79.96
1637828.592979,-0.636,-0.146,-1.141,-44.98,-181.92,18.68
1637828.633362,-0.831,-0.117,-1.004,-13.15,-87.22,16.11
1637828.679345,-0.884,-0.101,-0.954,1.65,-30.85,-3.3
1637828.729123,-0.835,-0.067,-0.977,-5.01,37.69,-5.28
1637828.769369,-0.633,-0.153,-1.113,11.29,114.44,-7.66
1637828.811013,-0.442,-0.127,-1.452,36.01,304.85,-38.82
1637828.853030,-0.575,0.05,-1.624,37.9,507.03,-41.54
1637828.899538,-0.513,-0.057,-1.293,1.74,632.44,-21.94
1637828.940031,-0.213,0.006,-1.04,98.45,538.22,-16.85
1637828.983360,0.294,-0.211,-0.518,82.37,420.12,-44.34
1637829.029753,0.535,-0.013,-0.126,40.62,124.39,-57.16
1637829.073125,0.641,0.061,-0.234,17.21,75.14,-13.18
1637829.113621,0.68,0.005,-0.215,13.37,17.76,18.46
1637829.159228,0.714,-0.041,-0.242,-0.95,8.94,16.14
1637829.209615,0.712,-0.124,-0.258,-0.76,-31.25,23.8
1637829.260251,0.544,-0.192,-0.107,-1.59,-73.46,19.71
1637829.300403,0.298,-0.213,0.148,11.32,-381.79,45.56
1637829.343677,-0.618,0.124,-0.952,2.62,-684.68,114.66
1637829.393524,-0.948,-0.042,-1.203,-72.33,-752.74,69.77
1637829.439943,-0.907,-0.074,-1.678,-26.95,-583.24,67.96
1637829.482967,-0.537,-0.264,-1.495,-54.26,-283.09,47.7
1637829.523799,-0.945,-0.206,-1.018,8.12,-45.63,43.21
1637829.569523,-1.088,-0.177,-0.711,-28.9,12.36,0.82
1637829.609835,-0.923,-0.178,-0.999,8.97,52.22,-12.67
1637829.663103,-0.734,-0.158,-1.412,22.31,265.66,-39.83
1637829.703695,-0.714,-0.115,-1.525,9.61,477.68,-29.76
1637829.749896,-0.756,-0.07,-1.396,-14.71,631.61,-40.89
1637829.793356,-0.396,-0.041,-1.243,56.58,605.46,-10.77
1637829.833823,0.155,-0.213,-0.78,81.88,454.66,-8.0
1637829.880280,0.431,-0.202,-0.166,22.1,282.94,-60.37
1637829.923731,0.541,-0.042,-0.156,13.37,118.32,-50.23
1637829.969317,0.668,-0.001,-0.27,5.1,52.03,-7.87
1637830.009968,0.586,-0.043,-0.113,0.79,32.44,7.93
1637830.059784,0.506,-0.051,-0.103,6.23,-66.65,35.98
1637830.110664,0.353,-0.251,0.032,-2.56,-218.94,58.47
1637830.153440,-0.258,-0.27,-0.087,41.11,-534.1,84.05
1637830.199840,-0.78,0.009,-1.269,-57.5,-718.59,83.19
1637830.243292,-0.858,-0.036,-1.301,-148.11,-646.96,43.31
1637830.292884,-0.583,-0.194,-1.499,-73.95,-436.23,48.28
1637830.339736,-0.71,-0.285,-1.089,25.57,-134.74,21.42
1637830.379849,-1.092,-0.068,-0.64,40.25,-45.01,-11.54
1637830.419877,-1.061,-0.103,-0.722,3.85,-66.16,-7.9
1637830.460595,-0.975,-0.13,-0.955,-4.52,-11.35,2.96
1637830.510466,-0.863,-0.158,-1.1,-2.9,143.07,-0.82
1637830.563703,-0.731,-0.149,-1.482,-14.71,406.66,-14.98
1637830.611488,-0.668,-0.086,-1.672,6.99,605.37,-10.19
1637830.663728,-0.5,-0.096,-1.323,21.79,657.34,4.73
1637830.709924,0.138,-0.099,-0.618,98.73,440.9,0.34
1637830.750216,0.406,-0.16,-0.314,60.24,307.66,-55.48
1637830.793480,0.472,-0.098,-0.023,18.49,175.33,-57.62
1637830.840135,0.603,-0.011,-0.197,19.1,51.82,-14.1
1637830.890044,0.563,-0.062,-0.104,11.23,-11.78,14.77
1637830.930332,0.568,-0.118,-0.197,-9.0,-44.89,26.15
1637830.973444,0.458,-0.208,-0.037,-26.55,-134.59,28.32
1637831.020235,-0.176,-0.193,0.156,78.19,-461.17,71.87
1637831.063497,-1.089,-0.179,-0.757,29.51,-765.43,133.18
1637831.110532,-1.429,-0.147,-1.469,-82.16,-835.66,96.32
1637831.159425,-0.524,-0.537,-1.895,-63.91,-508.68,59.6
1637831.199966,-0.739,-0.39,-1.23,-26.98,-55.48,-6.81
1637831.240123,-1.261,0.06,-0.466,18.74,-1.83,32.75
1637831.280311,-0.983,-0.146,-0.579,-40.99,-76.54,32.96
1637831.323611,-0.967,-0.111,-0.957,-3.17,-18.56,21.45
1637831.369504,-1.019,-0.086,-0.851,20.08,116.52,14.62
1637831.410096,-0.944,-0.073,-0.94,-8.7,209.88,36.07
1637831.453001,-0.655,-0.265,-1.197,-11.11,318.8,9.58
1637831.493280,-0.49,-0.131,-1.622,53.41,480.94,-23.77
1637831.541971,-0.724,0.088,-1.613,91.04,696.8,3.66
1637831.593587,-0.345,-0.206,-0.898,127.11,604.94,-15.99
1637831.643396,0.256,-0.266,-0.062,53.47,332.35,-70.74
1637831.689867,0.575,-0.103,-0.267,27.65,119.21,-62.62
1637831.730223,0.575,-0.097,-0.026,5.25,81.24,-35.43
1637831.770265,0.609,-0.132,-0.163,3.45,12.12,-3.81
1637831.819977,0.622,-0.13,-0.142,-15.11,-6.87,-6.5
1637831.860611,0.554,-0.161,-0.114,-23.04,-55.3,5.4
1637831.913797,0.37,-0.256,0.323,-22.06,-234.08,16.57
1637831.960940,-0.79,-0.172,-0.451,34.3,-700.49,101.75
1637832.003754,-1.084,-0.047,-1.422,-69.12,-832.09,121.25
1637832.047832,-1.008,-0.146,-1.59,-67.57,-747.22,111.27
1637832.089064,-0.602,-0.419,-1.562,-18.34,-371.93,27.53
1637832.129722,-0.922,-0.229,-0.995,-9.43,-90.12,-7.66
1637832.170099,-1.1,-0.115,-0.627,12.05,-65.0,35.68
1637832.210389,-1.043,-0.14,-0.707,-35.55,-58.41,28.08
1637832.253502,-0.979,-0.179,-0.843,-20.11,12.18,17.7
1637832.299091,-0.972,-0.136,-0.8,-5.65,122.56,-7.26
1637832.339568,-0.673,-0.174,-1.184,8.45,253.88,10.1
1637832.379769,-0.567,-0.185,-1.502,21.64,498.64,-30.34
1637832.420647,-0.901,0.125,-1.372,26.7,682.45,-43.67
1637832.463657,-0.659,-0.168,-0.962,54.35,576.1,-15.26
1637832.510300,0.298,-0.182,-0.597,94.58,365.46,-14.4
1637832.553407,0.42,-0.235,-0.212,44.59,253.27,-71.69
1637832.599912,0.618,-0.057,-0.227,11.63,93.69,-56.58
1637832.641045,0.654,-0.045,-0.201,18.56,33.11,-30.4
1637832.693177,0.759,-0.041,-0.384,10.9,-2.99,17.37
1637832.743669,0.754,-0.165,-0.401,10.41,-0.7,11.84
1637832.789002,0.784,-0.187,-0.553,18.65,-4.06,21.91
1637832.829053,0.614,-0.249,-0.586,64.85,-19.26,53.29
1637832.870060,0.469,-0.379,-0.656,175.63,-77.94,123.87
1637832.919711,0.623,-0.49,-0.819,179.66,-36.53,111.88
1637832.962937,0.391,-0.543,-0.673,204.96,-88.72,56.64
1637833.010126,0.619,-0.677,-0.542,160.47,-11.81,50.17
1637833.053328,0.685,-0.718,-0.28,140.78,-77.67,16.3
1637833.093589,0.857,-0.718,-0.313,109.68,-56.43,15.23
1637833.139401,0.845,-0.735,-0.16,64.15,9.58,3.94
1637833.179585,0.76,-0.517,0.005,117.89,39.09,56.58
1637833.223429,0.443,-0.378,0.399,213.29,95.34,163.52
1637833.270415,0.224,-0.256,0.712,396.19,49.53,351.94
1637833.319900,0.099,-0.165,0.571,285.93,37.26,389.2
1637833.363673,-0.181,-0.29,0.978,48.07,115.05,229.8
1637833.410120,-0.965,-0.593,1.59,-90.52,52.83,151.07
1637833.453852,-0.933,-0.704,1.388,-51.76,-73.85,162.91
1637833.503132,-0.788,-1.025,0.993,-67.9,-173.65,104.92
1637833.549766,-0.512,-1.025,0.46,-93.26,-193.46,33.75
1637833.593116,-1.769,-2.11,3.48,126.65,471.02,-25.09
1637833.641171,-0.888,-0.449,0.362,157.63,-127.78,72.51
1637833.683537,-0.2,-0.934,0.073,95.55,19.93,1.04
1637833.723954,-0.317,-0.992,0.432,-54.08,78.98,-119.45
1637833.770496,-0.385,-0.665,0.626,23.53,114.87,-53.93
1637833.813436,-0.432,-0.547,0.837,62.41,103.34,-7.97
1637833.859026,-0.695,-0.33,1.272,35.07,71.96,-4.36
1637833.899179,-0.79,-0.269,1.376,-42.51,-23.77,-42.05
1637833.939933,-0.731,-0.322,1.23,-67.05,-93.2,-20.94
1637833.980013,-0.584,-0.356,0.864,-114.29,-139.16,-16.08
1637834.029169,-0.556,-0.484,0.663,-117.98,-183.2,27.71
1637834.070184,0.298,-0.997,-0.578,5.98,-87.19,-21.09
1637834.113432,-0.74,-0.982,0.364,124.94,-50.51,206.82
1637834.163066,-0.317,-0.971,0.221,107.76,-19.81,108.49
1637834.203704,-0.359,-0.766,0.331,16.02,59.27,-5.77
1637834.249493,-0.683,-0.552,0.96,60.03,96.77,8.55
1637834.290697,-0.704,-0.444,1.115,42.76,44.8,19.44
1637834.343396,-0.856,-0.323,1.371,-47.33,8.55,-35.92
1637834.383413,-0.832,-0.337,1.295,-80.36,-85.57,-30.76
1637834.429965,-0.614,-0.355,0.786,-106.39,-156.83,-3.14
1637834.473198,-0.644,0.014,-0.884,-158.57,-118.96,-0.61
1637834.513979,0.023,-1.299,0.114,107.85,-88.9,-90.09
1637834.560804,-0.49,-1.182,-0.081,127.02,-56.37,131.44
1637834.613826,-0.268,-1.132,-0.068,-8.58,64.06,-61.62
1637834.661622,-0.5,-0.779,0.506,20.23,161.5,-86.83
1637834.703475,-0.645,-0.501,0.965,109.38,143.16,-3.33
1637834.749892,-0.862,-0.321,1.435,31.8,67.38,15.17
1637834.803398,-0.911,-0.271,1.357,-58.08,-42.02,-18.62
1637834.843634,-0.86,-0.258,1.053,-87.31,-118.44,-10.01
1637834.891199,-0.816,-0.425,0.587,-103.89,-181.68,24.72
1637834.933620,-1.519,-1.174,2.983,-173.41,255.99,51.76
1637834.980115,-0.375,-1.512,0.353,107.18,-21.52,103.12
1637835.020484,-0.36,-1.049,0.002,0.85,50.6,-19.53
1637835.063356,-0.4,-0.761,0.451,35.74,133.46,-51.82
1637835.109897,-0.824,-0.332,1.512,79.71,105.81,-4.03
1637835.149908,-0.843,-0.205,1.679,-16.08,-22.22,28.41
1637835.191648,-0.72,-0.335,1.153,-41.14,-128.57,62.26
1637835.233475,-0.726,-0.47,0.707,-54.38,-162.54,66.77
1637835.280083,0.721,-2.149,-2.21,100.74,-137.7,27.34
1637835.323130,-1.166,-0.468,0.754,-61.74,53.56,61.74
1637835.363571,-0.605,-1.066,0.176,13.64,63.54,-17.82
1637835.409767,-0.468,-0.853,0.269,14.8,99.49,-68.42
1637835.451123,-0.618,-0.587,0.823,74.04,112.98,-39.19
1637835.493677,-0.687,-0.295,1.261,58.02,84.66,-42.73
1637835.539643,-0.935,-0.144,1.576,-44.62,9.52,-64.55
1637835.579803,-0.802,-0.27,1.149,-67.48,-134.31,-1.19
1637835.620254,-0.652,-0.451,0.512,-96.99,-145.39,5.1
1637835.663546,-0.923,-1.708,1.667,-179.24,199.77,-14.34
1637835.710578,-0.494,-1.175,0.092,126.83,-23.9,101.5
1637835.753455,-0.418,-1.071,0.044,30.73,43.03,14.1
1637835.798991,-0.442,-0.776,0.617,52.98,122.32,-33.88
1637835.840267,-0.723,-0.396,1.246,93.51,109.35,-12.67
1637835.893412,-0.933,-0.216,1.551,-30.85,15.26,-47.03
1637835.940017,-0.802,-0.299,1.07,-76.48,-122.01,-8.33
1637835.980623,-0.689,-0.423,0.615,-92.65,-157.44,18.16
1637836.024023,-0.66,-2.602,1.273,-208.35,174.6,-33.45
1637836.070674,-0.503,-1.117,0.69,141.73,-62.75,157.72
1637836.119827,-0.365,-1.157,0.09,59.39,-0.46,74.01
1637836.160429,-0.409,-0.95,0.232,14.44,113.86,-62.53
1637836.203202,-0.765,-0.446,1.039,65.68,163.21,-79.87
1637836.249507,-0.964,-0.057,1.603,16.85,39.46,-29.54
1637836.289723,-0.901,-0.141,1.415,-42.51,-85.48,10.44
1637836.332783,-0.742,-0.306,0.8,-72.57,-166.2,45.47
1637836.379743,0.807,-1.97,-2.439,-130.99,-159.55,54.99
1637836.423227,-1.257,-0.61,-1.399,-106.97,-36.5,-36.65
1637836.469847,-0.379,-0.997,0.014,68.85,10.56,45.5
1637836.510799,-0.35,-0.921,0.124,8.42,75.96,-52.95
1637836.563694,-0.669,-0.521,1.004,63.57,142.19,-58.02
1637836.610111,-0.898,-0.246,1.595,-12.63,36.62,-49.56
1637836.650343,-0.798,-0.264,1.367,-69.8,-67.72,-37.75
1637836.694321,-0.649,-0.36,0.813,-91.16,-140.84,-8.15
1637836.740885,-0.264,-0.625,-1.412,2.69,-162.21,19.29
1637836.793644,-0.696,-0.528,0.597,-142.37,59.94,56.25
1637836.839782,-0.296,-1.023,0.027,60.64,7.51,65.8
1637836.880085,-0.254,-1.017,0.069,73.24,55.7,27.68
1637836.920392,-0.513,-0.829,0.544,87.28,126.65,-11.44
1637836.962654,-0.835,-0.418,1.268,95.77,158.51,-45.84
1637837.010609,-1.074,-0.204,1.69,-65.61,-13.15,-77.39
1637837.053409,-0.791,-0.261,1.132,-68.27,-136.39,-21.7
1637837.094151,-0.663,-0.397,0.567,-101.6,-174.41,10.41
1637837.140185,-0.195,-1.602,1.901,58.99,-133.4,-96.5
1637837.183082,-0.395,-0.937,-0.308,83.35,-1.4,22.86
1637837.223551,-0.205,-0.983,-0.007,62.26,80.05,-27.19
1637837.270096,-0.418,-0.68,0.417,51.76,140.35,-54.38
1637837.313058,-0.755,-0.357,1.152,106.36,159.95,-3.39
1637837.353562,-0.958,-0.232,1.574,-3.48,49.01,-23.44
1637837.399604,-0.895,-0.301,1.295,-58.66,-107.52,-8.67
1637837.441074,-0.728,-0.474,0.828,-66.59,-193.79,23.59
1637837.483679,-0.409,-1.137,-1.388,-34.91,-287.7,32.62
1637837.530485,-0.88,-0.853,-0.619,-60.12,-67.93,20.81
1637837.570833,-0.48,-1.127,0.027,18.19,64.09,-58.14
1637837.613570,-0.196,-1.1,0.263,-41.38,81.45,-82.34
1637837.660560,-0.378,-0.708,0.682,67.87,134.13,-37.2
1637837.713843,-0.728,-0.297,1.447,19.14,141.85,-49.23
1637837.759992,-0.892,-0.265,1.551,-49.84,-38.64,-35.31
1637837.813142,-0.61,-0.41,0.751,-75.11,-157.75,14.01
1637837.859909,1.273,-3.045,-2.25,135.35,-29.88,27.44
1637837.903328,-0.46,-0.469,-0.571,-28.9,-0.49,20.05
1637837.949415,-0.202,-1.059,0.13,68.7,67.45,10.35
1637837.990142,-0.201,-0.84,0.248,87.44,62.5,-22.89
1637838.030408,-0.428,-0.525,0.7,106.48,125.4,-4.58
1637838.079732,-0.687,-0.226,1.237,97.93,122.44,6.93
1637838.120286,-1.03,-0.183,1.641,-29.27,41.54,-37.87
1637838.161390,-0.91,-0.313,1.341,-34.76,-122.41,14.8
1637838.203511,-0.657,-0.512,0.732,-55.02,-189.0,42.09
1637838.251062,0.745,-2.936,-2.04,-69.19,-85.6,31.46
1637838.293203,-0.765,-0.766,-0.357,-10.74,9.19,-27.86
1637838.339238,-0.225,-0.971,0.23,16.08,93.42,-32.17
1637838.379799,-0.293,-0.751,0.448,-21.3,107.76,-63.45
1637838.420397,-0.624,-0.506,0.954,33.97,166.91,-19.53
1637838.463528,-0.899,-0.438,1.527,-12.57,112.09,-28.41
1637838.503942,-0.971,-0.391,1.537,-36.84,-35.52,-32.72
1637838.550227,-0.707,-0.496,0.994,-56.31,-148.44,-14.65
1637838.593381,-0.511,-0.677,0.504,-66.99,-194.56,-2.17
1637838.640696,0.339,-2.051,0.756,115.82,-49.5,56.92
1637838.693128,-0.427,-0.895,0.055,42.82,62.47,0.89
1637838.733187,-0.132,-0.904,0.455,66.01,54.02,10.74
1637838.780275,-0.545,-0.408,0.882,145.79,125.1,61.1
1637838.823914,-0.767,-0.139,1.216,62.17,112.25,22.16
1637838.869985,-1.044,-0.325,1.496,-80.51,-2.04,-3.48
1637838.909989,-0.848,-0.52,1.073,-74.47,-122.87,-6.2
1637838.950147,-0.62,-0.683,0.599,-39.8,-165.68,15.63
1637838.994308,-0.135,-0.025,0.335,134.19,130.31,108.58
1637839.041360,-0.438,-1.01,0.325,-26.06,20.51,-50.57
1637839.094412,-0.235,-0.836,0.347,-67.78,43.18,-87.71
1637839.140708,-0.436,-0.612,0.676,26.67,108.13,-12.27
1637839.182778,-0.647,-0.548,1.058,103.67,96.68,78.25
1637839.223826,-0.914,-0.459,1.398,30.95,48.65,1.04
1637839.269502,-0.937,-0.446,1.465,-27.83,-66.74,-45.35
1637839.310376,-0.652,-0.491,0.814,-58.29,-152.41,-49.32
1637839.353537,0.798,-0.172,-1.359,162.97,-197.58,-33.97
1637839.400085,-0.637,-0.906,0.776,-239.69,-27.74,6.13
1637839.441446,-0.269,-0.877,0.261,96.22,31.68,39.34
1637839.483454,-0.127,-0.809,0.399,62.75,12.57,25.7
1637839.523451,-0.368,-0.536,0.624,90.95,112.74,39.58
1637839.573425,-0.789,-0.309,1.248,93.72,117.28,49.41
1637839.613794,-1.025,-0.306,1.448,-4.09,20.57,3.17
1637839.660468,-0.89,-0.525,1.255,-24.32,-107.12,3.3
1637839.709944,-0.535,-0.725,0.641,-42.09,-158.97,-8.06
1637839.753061,-0.485,-0.178,3.26,-92.35,341.23,39.7
1637839.799301,-0.649,-0.953,0.075,-47.79,-84.63,-25.12
1637839.839802,-0.222,-1.054,0.397,-87.44,71.96,-119.88
1637839.882996,-0.218,-0.77,0.331,-44.8,75.38,-116.37
1637839.929520,-0.567,-0.558,0.991,81.51,160.31,19.84
1637839.973427,-0.719,-0.358,1.21,83.71,99.25,32.07
1637840.013690,-1.001,-0.301,1.393,-26.34,24.93,-44.47
1637840.053997,-0.909,-0.337,1.201,-46.75,-87.95,-24.72
1637840.100156,-0.63,-0.422,0.61,-88.96,-139.5,7.93
1637840.143114,0.102,-0.365,-0.326,-84.14,-74.04,54.84
1637840.190319,-0.431,-0.812,0.26,-126.22,-141.12,39.61
1637840.230449,-0.319,-0.942,-0.298,79.62,58.41,29.91
1637840.273175,-0.278,-0.992,0.3,-17.73,65.25,-73.27
1637840.313513,-0.398,-0.77,0.312,7.72,85.97,-15.14
1637840.360480,-0.525,-0.656,0.615,75.56,100.28,66.77
1637840.413568,-0.671,-0.662,0.64,21.91,86.12,25.54
1637840.453877,-0.786,-0.648,0.742,12.33,70.96,-4.55
1637840.499561,-0.676,-0.577,0.68,14.5,26.37,-1.98
1637840.539991,-0.606,-0.553,0.598,10.47,11.72,15.2
1637840.590676,-0.621,-0.631,0.585,12.02,0.92,41.9
1637840.641439,-0.642,-0.684,0.494,15.44,-3.75,33.42
1637840.690938,-0.666,-0.695,0.498,-5.07,-2.01,0.55
1637840.740378,-0.642,-0.66,0.487,-5.71,-10.9,-4.7
1637840.791307,-0.62,-0.656,0.473,-6.01,-17.37,4.09
1637840.840586,-0.622,-0.681,0.461,-5.62,-17.73,5.07
1637840.891416,-0.622,-0.664,0.477,-6.35,-1.89,-7.45
1637840.939926,-0.634,-0.656,0.475,2.17,-3.02,-4.09
1637840.990659,-0.591,-0.634,0.493,5.65,-6.35,-8.24
1637841.039445,-0.52,-0.571,0.478,8.15,-10.22,-6.56
1637841.079816,-0.582,-0.489,0.664,36.9,-14.01,22.06
1637841.120170,-0.562,-0.311,0.81,155.22,-53.47,125.0
1637841.165041,-0.669,-0.325,0.806,233.34,-127.05,239.75
1637841.213557,-0.636,-0.169,0.807,199.35,-81.09,199.8
1637841.260635,-0.884,-0.033,1.048,-25.54,-56.06,4.91
1637841.313513,-0.822,-0.24,1.048,-37.81,-70.1,20.75
1637841.353951,-0.666,-0.314,0.828,-209.45,-40.22,-100.1
1637841.404119,-0.494,-0.401,0.954,-278.12,9.22,-232.43
1637841.450296,-0.695,-0.221,1.243,-180.82,-2.26,-174.2
1637841.493414,-0.64,-0.102,0.964,-79.32,-151.4,-67.87
1637841.541011,-1.043,-0.972,-0.306,-79.84,-285.23,34.91
1637841.583370,0.451,-1.281,0.184,-89.63,-136.85,83.99
1637841.629846,-0.227,-0.35,0.018,57.01,9.67,27.95
1637841.670719,-0.25,-0.642,0.332,107.39,50.69,113.83
1637841.720729,-0.381,-0.631,0.357,193.55,68.36,122.71
1637841.763606,-0.579,-0.342,0.751,177.22,146.95,88.53
1637841.813278,-0.955,-0.063,1.388,121.74,153.84,65.61
1637841.853918,-1.244,-0.127,1.657,-53.96,34.49,-32.29
1637841.899946,-0.854,-0.333,1.426,-101.29,-76.27,-104.16
1637841.943603,-0.6,-0.444,1.079,-123.29,-127.2,-123.72
1637841.993570,-0.502,-0.406,0.772,-142.43,-143.35,-140.2
1637842.044344,0.553,1.278,-1.431,-174.35,-37.63,-34.7
1637842.091692,-0.522,-0.308,0.61,27.53,-77.58,26.4
1637842.141042,-0.463,-0.738,-0.054,122.44,-46.21,223.46
1637842.183657,-0.267,-0.746,0.065,145.15,82.4,117.89
1637842.230297,-0.601,-0.708,0.313,54.02,161.57,-4.67
1637842.273395,-0.956,-0.626,0.732,93.2,224.25,-5.4
1637842.320608,-1.075,-0.442,0.935,140.2,152.26,14.74
1637842.363671,-1.22,-0.276,1.19,62.17,112.31,-72.97
1637842.410172,-1.313,-0.119,1.408,-35.16,7.9,-120.76
1637842.453567,-1.225,-0.134,1.207,-66.26,-104.07,-118.38
1637842.503278,-1.099,-0.255,0.987,-117.89,-175.7,-115.45
1637842.552972,-0.887,-0.377,0.6,-106.69,-272.29,-75.75
1637842.617031,-0.777,-1.523,0.467,-154.0,259.13,18.68
1637842.659558,-0.396,-1.071,-0.112,-85.73,-22.8,-41.17
1637842.700039,-0.103,-1.134,-0.107,-80.6,83.96,-82.77
1637842.740407,-0.217,-0.964,-0.051,12.63,105.2,-76.17
1637842.783540,-0.341,-0.761,0.352,138.71,158.33,27.13
1637842.833461,-0.415,-0.52,0.562,239.27,154.27,93.14
1637842.880423,-0.876,-0.425,0.928,94.21,169.07,-6.23
1637842.924022,-0.998,-0.174,1.107,67.38,109.1,-55.02
1637842.969783,-0.969,-0.017,1.186,-18.46,22.03,-64.67
1637843.010042,-0.958,-0.073,1.13,-47.64,-45.29,-11.35
1637843.050320,-1.024,-0.304,1.027,-126.96,-130.1,-11.05
1637843.093486,-1.067,-0.496,0.856,-142.0,-206.46,-8.12
1637843.143586,-0.933,-0.631,0.434,-167.64,-324.23,-9.46
1637843.190382,0.456,-2.016,3.051,-86.43,84.17,163.37
1637843.233485,-0.011,-1.267,-0.011,-159.43,-65.52,47.09
1637843.273785,-0.045,-1.115,-0.13,74.16,81.51,-17.67
1637843.323302,-0.157,-0.769,0.041,119.05,151.4,-23.77
1637843.370293,-0.533,-0.524,0.544,129.28,227.88,-5.07
1637843.413614,-0.706,-0.535,0.781,77.15,211.16,-16.39
1637843.460794,-1.057,-0.442,1.128,22.4,131.69,-84.14
1637843.503270,-1.138,-0.197,1.396,-3.11,43.0,-43.03
1637843.544132,-1.097,-0.3,1.267,-47.18,-94.91,-5.98
1637843.589381,-1.112,-0.459,1.021,-89.79,-203.71,24.26
1637843.632820,-1.001,-0.562,0.663,-97.66,-297.83,39.03
1637843.679800,-0.744,-0.815,-0.203,-117.95,-350.51,46.94
1637843.723483,0.584,-2.785,0.357,55.27,-100.41,-67.81
1637843.770359,-0.088,-1.263,-0.655,264.87,-56.25,142.64
1637843.820100,-0.026,-1.143,-0.022,62.29,142.64,-20.11
1637843.863317,-0.489,-0.779,0.181,55.54,225.9,-77.36
1637843.909802,-0.903,-0.658,1.036,79.38,228.49,-33.85
1637843.953038,-0.808,-0.428,0.964,71.5,110.32,-33.39
1637843.993388,-0.811,-0.364,0.913,26.58,75.81,-46.69
1637844.039281,-0.847,-0.353,0.986,0.31,3.63,-19.68
1637844.079342,-0.95,-0.263,1.089,-43.06,-48.4,-8.45
1637844.120226,-1.036,-0.307,1.019,-97.81,-149.08,17.91
1637844.163558,-0.98,-0.454,0.679,-96.62,-241.19,69.67
1637844.210477,-0.797,-0.698,0.247,-125.71,-301.22,72.24
1637844.259986,0.598,-2.144,1.504,-71.57,-59.42,106.91
1637844.300139,-0.226,-1.231,-0.361,39.58,-13.09,-29.73
1637844.343334,-0.047,-1.222,0.106,24.32,143.25,-59.02
1637844.390646,-0.262,-0.848,0.076,45.2,155.89,-65.8
1637844.433073,-0.544,-0.735,0.52,66.26,203.99,-35.89
1637844.480071,-0.698,-0.703,0.775,47.3,149.42,-31.1
1637844.524126,-0.823,-0.655,0.887,35.4,99.73,-39.89
1637844.565507,-0.816,-0.49,1.017,30.88,56.22,-45.53
1637844.609114,-0.838,-0.341,1.134,-25.97,-26.83,-32.99
1637844.649443,-0.89,-0.337,0.997,-57.04,-103.67,3.3
1637844.690279,-0.922,-0.445,0.812,-75.96,-189.83,52.46
1637844.733378,-0.879,-0.591,0.436,-81.36,-265.97,96.62
1637844.782969,-0.665,-1.038,-0.908,-111.03,-398.27,125.06
1637844.830312,-0.389,-0.666,-0.573,-101.54,-37.35,-39.43
1637844.870597,-0.145,-1.11,-0.207,-8.3,17.0,31.34
1637844.913592,-0.031,-1.133,-0.326,67.45,44.74,5.77
1637844.953942,-0.203,-1.035,-0.121,54.17,141.7,-40.99
1637845.000399,-0.566,-0.795,0.408,85.06,215.37,-55.48
1637845.043756,-0.772,-0.669,0.827,79.04,167.73,-22.98
1637845.090859,-0.824,-0.517,1.021,79.47,99.73,-20.2
1637845.149900,-0.907,-0.304,1.226,7.84,30.82,-54.99
1637845.190149,-0.843,-0.348,1.07,-54.17,-92.26,-24.75
1637845.230266,-0.831,-0.459,0.814,-77.24,-157.72,4.43
1637845.273381,-0.762,-0.579,0.513,-109.59,-210.67,25.39
1637845.323347,-0.621,-0.693,0.07,-110.35,-237.95,43.92
1637845.370481,-0.195,-0.984,3.502,-6.71,131.41,105.38
1637845.410630,-0.422,-0.601,-0.112,-6.38,-70.77,51.15
1637845.453980,0.06,-1.549,-0.037,108.31,77.43,62.01
1637845.500392,-0.328,-1.164,0.003,33.27,152.96,-52.49
1637845.543649,-0.554,-0.947,0.266,84.84,179.3,-51.33
1637845.590247,-0.63,-0.688,0.517,97.05,166.84,-47.15
1637845.633894,-0.753,-0.608,0.774,49.47,130.56,-44.71
1637845.680196,-0.737,-0.465,0.824,67.54,65.25,-15.96
1637845.720649,-0.777,-0.351,0.992,33.05,34.64,-15.63
1637845.773656,-0.89,-0.248,1.118,-16.02,-44.22,6.01
1637845.820236,-0.952,-0.316,0.917,-69.43,-153.9,64.55
1637845.863301,-0.951,-0.43,0.618,-102.48,-231.15,92.81
1637845.913285,-0.926,-0.697,0.275,-125.16,-301.28,118.38
1637845.960788,0.352,-1.891,1.926,-45.32,-111.7,105.66
1637846.003552,-0.125,-1.459,0.61,-55.7,-25.51,32.07
1637846.049799,-0.167,-1.148,0.001,58.96,39.7,-7.32
1637846.090141,-0.298,-0.938,-0.04,84.2,114.32,-36.59
1637846.133716,-0.531,-0.74,0.279,72.15,176.89,-69.98
1637846.180367,-0.718,-0.657,0.663,63.57,178.87,-59.6
1637846.223637,-0.754,-0.59,0.81,68.79,134.8,-36.96
1637846.269879,-0.791,-0.407,0.965,66.19,84.54,-33.08
1637846.310523,-0.866,-0.295,1.25,-6.26,45.17,-61.74
1637846.363414,-0.918,-0.235,1.275,-80.51,-63.42,-60.21
1637846.410162,-0.828,-0.376,0.853,-92.23,-169.19,8.12
1637846.453683,-0.821,-0.565,0.572,-118.63,-210.3,27.41
1637846.500366,-0.763,-0.719,0.121,-125.43,-245.89,44.5
1637846.549971,0.195,-0.349,3.029,65.61,-138.46,66.96
1637846.591497,-0.251,-1.044,-0.068,60.4,-50.51,13.03
1637846.633387,-0.021,-1.168,-0.026,73.43,86.4,13.46
1637846.673830,-0.232,-1.015,-0.026,76.94,104.56,-22.71
1637846.720480,-0.542,-0.746,0.348,93.75,180.36,-39.89
1637846.763692,-0.732,-0.638,0.729,66.13,163.61,-39.61
1637846.809953,-0.691,-0.514,0.794,73.49,79.93,-1.46
1637846.860648,-0.757,-0.418,0.855,42.57,52.86,-11.38
1637846.903460,-0.886,-0.324,1.145,-3.78,21.18,-25.03
1637846.943574,-0.851,-0.267,1.079,-34.39,-67.6,6.04
1637846.983887,-0.819,-0.369,0.892,-60.91,-124.82,46.57
1637847.030588,-0.831,-0.53,0.622,-106.27,-185.92,51.06
1637847.080122,-0.843,-0.679,0.279,-125.58,-226.57,55.67
1637847.123910,-0.109,-1.513,2.599,47.03,22.58,111.3
1637847.170315,-0.757,-0.334,0.058,-6.96,77.43,-3.6
1637847.210519,-0.368,-0.764,0.961,-14.28,33.11,54.6
1637847.263679,-0.455,-0.977,0.382,8.42,3.81,25.91
1637847.310029,-0.433,-0.918,0.429,41.23,6.23,1.4
1637847.353801,-0.437,-0.838,0.451,19.99,-12.02,-5.74
1637847.399446,-0.442,-0.775,0.432,10.13,-4.64,1.8
1637847.440896,-0.435,-0.756,0.463,8.03,-1.01,-4.76
1637847.493480,-0.447,-0.738,0.442,23.35,-4.21,1.25
1637847.543753,-0.431,-0.757,0.468,10.99,0.98,6.81
1637847.591000,-0.442,-0.76,0.485,4.88,1.16,8.39
1637847.641305,-0.443,-0.778,0.5,7.08,5.28,6.1
1637847.690451,-0.435,-0.773,0.506,4.97,1.77,3.78
1637847.741103,-0.438,-0.76,0.521,3.66,0.31,5.65
1637847.788995,-0.459,-0.763,0.518,1.34,1.86,2.69
1637847.833297,-0.467,-0.756,0.518,0.09,1.8,0.46
1637847.880189,-0.452,-0.745,0.504,-0.03,-0.4,-1.65
1637847.929945,-0.451,-0.744,0.499,-1.43,2.41,0.73
1637847.979817,-0.457,-0.747,0.506,-1.53,2.01,1.59
1637848.029404,-0.464,-0.754,0.51,-2.53,2.75,2.47
1637848.079066,-0.459,-0.755,0.526,-1.16,-1.07,0.92
1637848.123903,-0.424,-0.747,0.544,-5.19,-0.7,1.77
1637848.173987,-0.226,-0.86,0.687,-73.21,-20.48,-9.46
1637848.220718,0.221,-1.284,0.382,-223.58,-75.26,-117.74
1637848.264024,0.348,-1.755,-0.338,-355.2,53.71,-245.61
1637848.314037,0.184,-1.474,-0.245,-350.51,265.69,-412.21
1637848.360599,0.134,-1.122,-0.186,-313.67,219.31,-354.29
1637848.403087,0.376,-0.853,-0.238,-208.81,147.34,-266.98
1637848.453180,0.56,-0.412,-0.351,-157.81,95.0,-199.53
1637848.500149,0.608,-0.196,-0.386,-106.54,43.12,-105.87
1637848.543470,0.667,-0.147,-0.557,-106.94,15.72,-64.55
1637848.591085,0.573,-0.166,-0.595,-95.1,-9.64,-30.0
1637848.640292,0.551,-0.173,-0.613,-71.57,-22.71,10.56
1637848.680633,0.526,-0.177,-0.526,-51.88,-46.42,42.6
1637848.723888,0.57,-0.188,-0.587,-43.46,-62.56,43.28
1637848.770085,0.547,-0.215,-0.532,-44.47,-54.35,19.29
1637848.810536,0.694,-0.112,-0.787,-31.74,-110.05,8.06
1637848.863759,0.706,-0.077,-0.728,-43.15,-57.92,-9.28
1637848.903889,0.857,0.067,-1.137,-34.76,-11.81,3.6
1637848.949691,0.755,-0.085,-0.747,-12.33,41.66,2.69
1637848.999430,0.703,-0.113,-0.701,6.62,75.84,2.08
1637849.040414,0.676,-0.12,-0.622,12.09,56.58,-0.58
1637849.090496,0.505,-0.025,-0.409,6.41,43.7,-20.23
1637849.140903,0.558,0.05,-0.375,-12.21,25.85,-24.45
1637849.193825,0.577,0.05,-0.448,-9.31,-19.56,0.55
1637849.233915,0.675,-0.04,-0.574,3.69,-27.41,24.87
1637849.279433,0.788,-0.056,-0.574,-3.51,-25.15,0.4
1637849.320003,0.901,-0.006,-0.714,-9.92,-20.54,-16.05
1637849.360711,0.931,0.012,-0.66,-1.62,-21.94,-5.68
1637849.409184,0.962,0.025,-0.763,-6.81,-8.06,4.3
1637849.453935,0.93,-0.01,-0.738,-5.52,-3.39,7.93
1637849.500518,0.898,-0.03,-0.725,-2.81,10.47,4.88
1637849.540587,0.81,-0.036,-0.644,-7.14,12.39,0.73
1637849.590745,0.777,-0.018,-0.692,3.78,7.72,3.81
1637849.640946,0.696,-0.032,-0.571,-2.69,12.27,-2.78
1637849.690852,0.717,-0.028,-0.623,1.25,10.44,-2.14
1637849.741286,0.698,-0.014,-0.542,-5.46,6.87,-10.47
1637849.789991,0.736,-0.005,-0.581,-0.46,1.68,-1.37
1637849.840091,0.784,0.011,-0.603,-3.63,-3.45,-4.21
1637849.883844,0.79,0.009,-0.594,-7.78,5.04,-1.8
1637849.930623,0.805,-0.017,-0.618,-3.2,5.22,-0.58
1637849.980463,0.786,0.007,-0.581,0.49,6.1,-0.24
1637850.029846,0.789,0.019,-0.616,-0.27,3.66,-1.28
1637850.085909,0.784,0.012,-0.564,-0.27,5.77,-0.85
1637850.129078,0.814,0.007,-0.597,-3.14,4.52,-0.12
1637850.173955,0.821,0.004,-0.594,-3.3,7.93,-1.31
1637850.223540,0.843,0.015,-0.619,0.4,14.4,-1.34
1637850.273551,0.827,0.011,-0.576,-3.66,26.64,0.61
1637850.324045,0.823,0.022,-0.522,-1.4,23.01,4.46
1637850.368982,0.79,-0.032,-0.494,4.73,12.63,6.87
1637850.414408,0.791,-0.016,-0.525,1.92,13.09,-4.55
1637850.460319,0.782,0.003,-0.48,4.0,-0.4,-2.66
1637850.510150,0.797,0.015,-0.492,0.4,4.52,0.64
1637850.560676,0.813,0.018,-0.511,2.72,-0.82,9.77
1637850.610315,0.764,-0.033,-0.476,4.03,-4.27,12.3
1637850.660920,0.663,-0.052,-0.383,1.53,-31.16,24.26
1637850.703224,0.36,-0.11,0.148,-7.69,-164.8,55.64
1637850.743663,-0.731,-0.084,0.065,-23.07,-689.93,76.63
1637850.796414,-2.553,0.236,-1.165,-13.43,-1000.03,36.07
1637850.840905,-0.554,-0.478,-3.103,94.06,-713.89,125.34
1637850.883120,-0.884,-0.481,-1.326,-36.23,80.48,-35.04
1637850.929852,-1.429,-0.184,-0.281,-71.9,92.75,-19.93
1637850.970523,-0.184,-0.705,-2.223,108.04,209.66,-76.24
1637851.020327,-1.422,0.129,-2.739,91.62,958.49,-126.41
1637851.076793,-2.102,0.069,-1.899,-91.98,1000.0,-126.29
1637851.119088,0.032,-0.443,1.253,47.21,364.94,-18.22
1637851.159826,0.443,0.066,-0.262,-30.52,30.15,-55.54
1637851.199891,0.504,0.083,-0.099,13.82,26.0,-14.1
1637851.240110,0.45,-0.136,-0.072,-37.69,-93.87,30.55
1637851.283130,0.052,-0.344,0.595,-86.76,-489.24,-2.75
1637851.329962,-2.942,0.439,-0.941,-65.49,-1000.03,4.97
1637851.373354,-2.034,0.08,-2.818,51.79,-1000.03,89.97
1637851.420069,-0.27,-0.858,-2.481,-20.08,-72.57,-25.3
1637851.463185,-1.826,0.165,-0.141,-39.55,229.32,-26.89
1637851.503598,-1.235,-0.189,-0.401,-64.09,-13.89,10.86
1637851.549291,-0.476,-0.315,-1.851,63.02,145.15,-40.13
1637851.590150,-0.84,-0.098,-2.187,99.55,680.72,-40.62
1637851.633394,-1.593,0.211,-2.29,0.61,1000.0,-76.27
1637851.680285,-1.035,-0.249,-0.662,17.76,822.87,-33.72
1637851.723576,0.04,-0.414,0.967,80.23,276.62,-90.79
1637851.770058,0.593,0.185,-0.372,-28.96,58.84,-63.45
1637851.810203,0.47,0.052,0.034,30.61,-7.51,13.43
1637851.850388,0.355,-0.059,0.122,-24.93,-140.29,39.46
1637851.893837,-0.317,-0.161,0.446,-82.16,-561.51,34.03
1637851.965326,-2.853,0.152,-1.228,13.67,-1000.03,23.8
1637852.009123,0.565,-0.929,-3.336,39.19,-469.89,88.63
1637852.049931,-1.345,-0.271,-0.71,-5.52,248.63,-145.73
1637852.090661,-1.606,0.153,0.283,15.38,-61.59,-27.92
1637852.133391,-0.782,-0.219,-1.228,23.16,-139.47,13.31
1637852.180299,-0.708,-0.326,-1.56,16.21,265.14,-10.93
1637852.220827,-0.823,-0.177,-1.977,37.42,636.62,-18.83
1637852.263717,-1.315,0.066,-2.287,-30.15,986.76,-82.77
1637852.313077,-1.31,-0.113,-0.756,20.66,857.36,-54.54
1637852.360070,0.233,-0.316,0.882,33.78,252.3,-76.82
1637852.400673,0.633,0.222,-0.51,-31.59,55.21,-115.18
1637852.443505,0.527,0.158,-0.002,-25.12,34.15,-46.02
1637852.489692,0.486,0.02,-0.002,-30.58,-104.13,62.47
1637852.530333,-0.129,-0.27,0.61,-35.71,-382.4,86.09
1637852.574044,-2.405,-0.08,-0.584,29.73,-1000.03,87.1
1637852.623668,-2.427,0.14,-2.639,23.68,-1000.03,74.25
1637852.670474,0.229,-1.039,-2.798,-68.85,-188.24,20.63
1637852.713644,-1.761,0.047,0.121,47.94,133.24,-76.85
1637852.754100,-1.144,-0.139,-0.56,1.01,-156.74,-34.33
1637852.799845,-0.806,-0.284,-1.48,18.4,128.21,-35.95
1637852.843121,-0.747,-0.277,-1.779,70.62,565.63,-31.46
1637852.889910,-1.467,-0.132,-2.299,-64.73,1000.0,-104.34
1637852.939701,-1.243,-0.188,-0.608,-5.31,818.48,-89.21
1637852.980352,0.227,-0.49,0.918,16.85,288.67,-94.09
1637853.024346,0.579,0.154,-0.407,-28.05,38.94,-123.14
1637853.070451,0.425,0.135,0.139,2.72,14.31,-37.63
1637853.110689,0.407,0.086,0.066,-31.04,-109.04,34.7
1637853.153840,-0.286,-0.187,0.781,-45.59,-432.57,78.31
1637853.200685,-3.756,0.132,-0.898,131.41,-1000.03,89.39
1637853.250663,-1.585,-0.444,-3.833,-10.71,-1000.03,157.57
1637853.294323,-0.231,-0.995,-2.521,-117.77,102.54,-117.31
1637853.340938,-1.958,0.303,0.634,7.6,9.86,-12.51
1637853.383717,-0.972,-0.294,-1.205,8.7,-167.82,14.86
1637853.430045,-0.737,-0.405,-1.608,56.52,287.61,-23.47
1637853.473285,-0.976,-0.176,-1.893,97.08,670.86,-48.34
1637853.513850,-1.465,0.135,-2.139,-1.74,964.32,-99.19
1637853.563783,-1.272,-0.248,-0.672,-50.45,825.31,-110.08
1637853.610286,0.217,-0.321,0.626,21.27,238.01,-99.86
1637853.653824,0.663,0.158,-0.674,-50.87,52.92,-112.25
1637853.699641,0.397,0.062,0.186,-17.37,6.35,-44.53
1637853.740819,0.116,-0.035,0.418,-46.91,-241.95,30.85
1637853.783562,-1.506,-0.173,-0.251,13.76,-846.03,49.96
1637853.833255,-2.62,0.293,-1.775,60.15,-1000.03,65.77
1637853.880226,0.39,-0.865,-3.317,-17.12,-514.33,85.94
1637853.920406,-1.156,-0.265,-0.818,34.76,197.18,-88.87
1637853.963558,-1.583,0.202,-0.043,3.23,22.64,-56.15
1637854.004085,-0.916,-0.125,-1.19,2.78,-59.08,0.46
1637854.047098,-0.395,-0.495,-2.184,39.58,334.51,-22.43
1637854.090785,-1.222,0.003,-2.245,84.57,840.66,-44.83
1637854.143967,-1.375,-0.065,-1.46,5.83,929.41,-78.13
1637854.191069,-0.031,-0.35,0.577,5.65,408.83,-46.17
1637854.233434,0.347,-0.02,0.058,1.56,91.31,-78.8
1637854.273848,0.527,0.042,-0.266,-48.62,56.0,-91.04
1637854.320096,0.295,0.05,0.377,-57.01,-131.29,-13.43
1637854.361120,-0.662,-0.171,0.403,-45.41,-585.25,39.92
1637854.404153,-2.455,0.174,-1.023,59.82,-1000.03,33.23
1637854.453575,-1.194,0.097,-2.782,-23.87,-862.54,118.99
1637854.499982,-0.652,-0.461,-1.494,-16.69,122.99,-50.81
1637854.540379,-1.617,0.181,-0.009,22.16,168.86,-56.67
1637854.580680,-1.252,-0.014,-0.65,-7.29,-101.38,-7.11
1637854.623718,-0.674,-0.308,-1.767,-10.13,31.43,-7.66
1637854.663962,-0.681,-0.348,-2.018,52.4,470.02,-44.34
1637854.710291,-1.075,0.003,-2.262,44.5,852.05,-86.28
1637854.753690,-1.251,-0.026,-1.388,-39.77,857.63,-92.32
1637854.800188,-0.059,-0.287,0.233,32.17,427.69,-30.55
1637854.843789,0.359,-0.009,0.142,18.62,125.31,-66.93
1637854.883866,0.449,0.106,-0.276,1.92,45.41,-57.16
1637854.929509,0.511,0.065,-0.238,41.05,13.76,34.42
1637854.969772,0.606,-0.132,-0.357,51.0,-22.52,52.31
1637855.010029,0.478,-0.269,-0.498,86.31,-62.81,57.92
1637855.053325,0.482,-0.3,-0.705,159.52,-90.33,91.25
1637855.099905,0.279,-0.186,-0.827,151.4,-45.5,52.1
1637855.143564,0.086,-0.288,-0.472,204.08,-118.02,116.49
1637855.193396,0.429,-0.699,-0.647,346.23,-176.61,229.87
1637855.243269,0.234,-0.782,-0.221,345.01,-130.22,268.07
1637855.293754,0.27,-1.13,0.209,450.18,-110.2,343.55
1637855.343764,0.156,-1.223,0.365,467.21,-43.12,345.04
1637855.390916,-0.152,-1.435,0.727,-8.67,139.01,37.87
1637855.441598,-0.425,-1.635,1.057,-217.54,187.29,-156.9
1637855.489649,-0.227,-1.494,0.784,17.03,62.01,-95.16
1637855.530522,-0.053,-1.204,0.4,33.81,59.57,-146.64
1637855.573725,-0.125,-0.947,0.488,-13.98,98.94,-178.96
1637855.620691,-0.107,-0.57,0.507,145.02,69.37,-75.2
1637855.663806,0.029,-0.322,0.482,237.19,25.21,33.08
1637855.710454,0.006,-0.071,0.372,187.26,30.76,101.23
1637855.754221,-0.267,-0.003,0.712,157.35,88.75,150.85
1637855.804173,-0.379,0.179,0.796,135.29,100.83,157.6
1637855.853820,-0.884,0.368,1.013,23.41,97.63,152.41
1637855.900664,-1.221,0.186,1.266,-184.15,2.17,114.44
1637855.943776,-1.017,-0.083,1.022,-200.14,-98.12,119.79
1637855.994020,-0.971,-0.393,0.725,-197.52,-162.05,161.53
1637856.045146,1.98,-2.988,-2.189,158.27,32.87,311.41
1637856.091093,-0.903,-0.694,1.165,-2.2,45.69,28.44
1637856.133657,-0.693,-0.137,1.087,149.33,-29.36,109.99
1637856.179987,-0.719,-0.647,0.948,-54.48,-55.73,-17.27
1637856.220031,-0.502,-0.592,0.689,-37.93,-27.38,-15.5
1637856.270562,-0.519,-0.53,0.671,33.02,7.05,-18.22
1637856.313424,-0.65,-0.406,0.754,56.64,41.05,-28.26
1637856.360637,-0.724,-0.269,0.882,60.0,10.19,-37.9
1637856.413366,-0.683,-0.097,0.833,20.57,-47.21,-41.17
1637856.459349,-0.505,-0.112,0.686,-12.21,-42.85,-14.5
1637856.509729,-0.469,-0.284,0.697,-31.65,-18.46,4.33
1637856.560491,-0.454,-0.31,0.675,12.48,5.92,0.06
1637856.610680,-0.553,-0.288,0.785,-9.0,17.76,0.06
1637856.663573,-0.575,-0.321,0.826,16.36,9.22,16.39
1637856.703685,-0.56,-0.336,0.8,7.32,10.32,11.87
1637856.753826,-0.584,-0.378,0.842,-0.24,10.77,5.31
1637856.800591,-0.595,-0.439,0.774,2.04,1.04,-2.26
1637856.841167,-0.67,-0.705,0.774,-17.27,26.4,-30.88
1637856.883480,-0.788,-1.035,0.913,-61.28,56.52,-122.53
1637856.930189,-0.795,-1.073,0.877,-87.22,32.23,-247.81
1637856.973800,-0.677,-1.056,0.721,-174.08,44.13,-345.53
1637857.023326,-0.628,-1.197,0.742,-239.11,82.86,-411.85
1637857.070396,-0.372,-1.055,0.601,-184.88,48.65,-395.28
1637857.114044,-0.125,-0.847,0.479,-139.65,14.68,-349.62
1637857.162793,0.151,-0.558,0.343,-81.06,5.46,-283.3
1637857.203145,0.309,-0.38,0.245,-39.22,-8.48,-218.42
1637857.245225,0.532,-0.298,0.097,-11.84,4.91,-149.48
1637857.290026,0.673,-0.286,0.02,4.64,25.09,-98.7
1637857.330470,0.71,-0.334,0.171,-66.19,52.34,-109.2
1637857.373524,0.644,-0.262,0.401,-41.99,4.36,-88.08
1637857.413870,0.612,-0.273,0.525,15.47,-71.17,-19.71
1637857.460230,0.533,-0.311,0.52,-3.94,-165.65,-29.05
1637857.501069,0.329,-0.304,0.502,-27.99,-233.38,-35.62
1637857.544108,0.111,-0.264,0.274,-20.91,-313.52,-34.27
1637857.590497,-0.066,0.055,-0.244,-98.27,-373.82,-41.02
1637857.640403,-0.427,0.3,-0.628,-120.33,-404.31,-31.01
1637857.683243,-1.28,1.834,-2.27,-42.24,-358.71,-17.18
1637857.730205,0.867,-0.632,-2.197,13.98,-96.74,-24.23
1637857.770573,0.103,-0.433,-1.611,-90.82,-29.73,-11.93
1637857.813937,0.098,-0.132,-1.547,29.6,90.73,5.62
1637857.861267,0.329,-0.285,-1.49,51.21,94.06,31.77
1637857.913749,0.216,-0.217,-1.119,24.14,187.32,4.18
1637857.960909,0.202,-0.272,-0.591,10.8,202.73,11.47
1637858.013578,0.26,-0.245,-0.114,31.13,155.71,4.79
1637858.060653,0.314,-0.225,0.176,19.41,74.25,-5.62
1637858.110185,0.258,-0.235,0.39,-6.78,-34.06,-8.45
1637858.160477,0.064,-0.127,0.135,-16.08,-168.13,-11.38
